accel_x1,accel_y1,accel_z1,accel_x2,accel_y2,accel_z2,accel_x3,accel_y3,accel_z3,accel_x4,accel_y4,accel_z4,accel_x5,accel_y5,accel_z5,accel_x6,accel_y6,accel_z6,accel_x7,accel_y7,accel_z7,accel_x8,accel_y8,accel_z8,accel_x9,accel_y9,accel_z9,accel_x10,accel_y10,accel_z10,accel_x11,accel_y11,accel_z11,move12
-1.5503759745465628,-0.007853981633974483,0.2497566159603886,-1.5283848259714345,-0.031415926535897934,0.2199114857512855,-1.5001104920891264,0.0,0.16179202165987436,-1.5393804002589988,-0.039269908169872414,0.3063052837250048,-1.5268140296446395,0.01884955592153876,0.2796017461694916,-1.5016812884159212,-0.010995574287564277,0.26703537555513246,-1.5283848259714345,-0.00471238898038469,0.26703537555513246,-1.4922565104551517,-0.015707963267948967,0.20420352248333656,-1.518960048010665,0.017278759594743863,0.2481858196335937,-1.5283848259714345,0.026703537555513242,0.2403318379996192,-1.5142476590302805,-0.039269908169872414,0.2246238747316702,0
-1.4875441214747671,-0.12409290981679685,0.15236724369910498,-1.534668011278614,-0.08325220532012953,0.13351768777756623,-1.5425219929125886,-0.03612831551628263,0.028274333882308135,-1.5236724369910497,-0.0031415926535897933,-0.06911503837897545,-1.5032520847427162,-0.007853981633974483,0.08325220532012953,-1.4922565104551517,-0.04241150082346221,0.034557519189487726,-1.4922565104551517,-0.05654866776461627,0.10524335389525807,-1.6147786239451536,0.05811946409141117,0.36128315516282616,-1.5440927892393834,0.04084070449666732,0.2466150233067988,-1.4655529728996386,0.014137166941154067,0.06283185307179587,-1.5362388076054088,0.034557519189487726,0.20734511513692636,0
-1.4969688994355363,0.07382742735936014,0.12409290981679685,-1.5268140296446395,0.07068583470577035,0.16493361431346415,-1.5126768627034854,0.03769911184307752,0.21205750411731106,-1.5268140296446395,0.06911503837897545,0.18064157758141308,-1.5126768627034854,0.08325220532012953,0.21362830044410594,-1.5221016406642547,0.08482300164692443,0.20577431881013145,-1.5016812884159212,0.059690260418206076,0.17592918860102844,-1.5205308443374599,0.08011061266653972,0.21048670779051615,-1.518960048010665,0.07696902001294993,0.19320794819577228,-1.5268140296446395,0.08796459430051422,0.2167698930976957,-1.5142476590302805,0.06911503837897545,0.17435839227423355,0
-1.5111060663766904,0.039269908169872414,0.16336281798666927,-1.5221016406642547,0.08796459430051422,0.10995574287564275,-1.5095352700498956,0.07068583470577035,0.08482300164692443,-1.5299556222982293,0.10681415022205297,0.10524335389525807,-1.5205308443374599,0.07382742735936014,0.11466813185602744,-1.5158184553570753,0.03298672286269283,0.1413716694115407,-1.5236724369910497,0.08011061266653972,0.14451326206513052,-1.5236724369910497,0.06911503837897545,0.13665928043115602,-1.5126768627034854,0.023561944901923447,0.14922565104551516,-1.5236724369910497,0.06911503837897545,0.17435839227423355,-1.5158184553570753,0.06911503837897545,0.16807520696705394,0
-1.5142476590302805,0.059690260418206076,0.15079644737231007,-1.5158184553570753,0.03298672286269283,0.16964600329384885,-1.5252432333178447,0.08796459430051422,0.16807520696705394,-1.5158184553570753,0.07225663103256526,0.13665928043115602,-1.518960048010665,0.11309733552923254,0.11780972450961726,-1.5582299561805373,0.028274333882308135,0.2199114857512855,-1.5001104920891264,-0.03769911184307752,-0.045553093477052,-1.5079644737231006,-0.0031415926535897933,-0.012566370614359173,-1.4938273067819468,-0.06597344572538566,-0.38013271108436497,-1.6493361431346414,-0.942477796076938,0.516791991515521,-1.5095352700498956,-0.10524335389525807,0.04241150082346221,0
-1.484402528821177,-0.16493361431346415,-0.2481858196335937,-1.5425219929125886,-0.5811946409141118,0.047123889803846894,-1.6132078276183586,-0.3989822670059037,-0.46181412007769956,-1.4451326206513047,-0.5811946409141118,-0.07068583470577035,-1.4215706757493816,-0.5780530482605221,-0.2403318379996192,-1.4592697875924587,-0.08796459430051422,-0.21519909677090085,-1.6084954386379742,0.1460840583919254,0.4084070449666731,-1.4796901398407927,-0.17435839227423355,-0.5701990666265474,-1.4734069545336133,-0.5497787143782138,0.1413716694115407,-1.413716694115407,-0.48380526865282825,0.4335397861953914,-1.5456635855661782,-0.46024332375090476,0.13351768777756623,0
-1.4341370463637408,0.19792033717615698,-0.2481858196335937,-1.457698991265664,0.0031415926535897933,-0.7131415323648831,-1.4859733251479723,-0.04398229715025711,-0.53249995478347,-1.4828317324943823,-0.25132741228718347,-0.23719024534602942,-1.5142476590302805,-0.34243359924128747,-0.10367255756846318,-1.471836158206818,-0.43668137884898117,-0.2905973204570559,-1.5283848259714345,-0.24190263432641412,0.017278759594743863,-1.4938273067819468,-0.2607521902479528,-0.2497566159603886,-1.5315264186250244,-0.29530970943744056,-0.10838494654884785,-1.533097214951819,-0.2214822820780804,-0.09581857593448868,-1.5299556222982293,-0.25761059759436306,-0.08639379797371932,0
-1.5111060663766904,-0.24504422698000392,-0.14765485471872028,-1.5299556222982293,-0.20263272615654165,-0.08011061266653972,-1.5221016406642547,-0.23090706003884978,-0.1303760951239764,-1.5142476590302805,-0.24190263432641412,-0.10995574287564275,-1.5221016406642547,-0.24504422698000392,-0.12095131716320706,-1.4969688994355363,-0.21362830044410594,-0.10367255756846318,-1.4953981031087415,-0.26703537555513246,-0.15079644737231007,-1.547234381892973,-0.12095131716320706,-0.12095131716320706,-1.5833626974092558,-0.3455751918948773,0.006283185307179587,-1.5283848259714345,-0.31258846903218446,-0.06283185307179587,-1.4953981031087415,-0.07225663103256526,-0.1303760951239764,0
-1.5016812884159212,-0.14451326206513052,-0.1429424657383356,-1.5456635855661782,-0.08482300164692443,-0.18535396656179778,-1.504822881069511,-0.182212373908208,-0.08796459430051422,-1.5268140296446395,-0.11780972450961726,0.07068583470577035,-1.5503759745465628,-0.1303760951239764,0.00471238898038469,-1.5409511965857936,-0.5953318078552658,-0.10210176124166828,-1.474977750860408,-0.21519909677090085,-0.18849555921538758,-1.4388494353441252,0.0,-0.36285395148962113,-1.5629423451609221,0.8105309046261666,-0.53249995478347,-1.5362388076054088,0.0,-0.19320794819577228,-1.5535175672001529,-0.09896016858807849,-0.11938052083641215,0
-1.5755087157752812,-0.31101767270538955,0.09581857593448868,-1.3760175822723293,-0.11938052083641215,0.10995574287564275,-1.5111060663766904,-0.26389378290154264,0.06754424205218056,-1.5283848259714345,-0.04398229715025711,0.028274333882308135,-1.5126768627034854,-0.16179202165987436,0.034557519189487726,-1.5393804002589988,-0.21834068942449059,0.023561944901923447,-1.5550883635269477,-0.243473430653209,0.03769911184307752,-1.5158184553570753,-0.16179202165987436,-0.1382300767579509,-1.5456635855661782,-0.08325220532012953,0.03612831551628263,-1.534668011278614,-0.1303760951239764,0.06754424205218056,-1.5111060663766904,-0.15079644737231007,-0.00942477796076938,0
-1.5016812884159212,-0.18535396656179778,0.031415926535897934,-1.533097214951819,-0.1774999849278233,0.023561944901923447,-1.5378096039322038,-0.12095131716320706,0.0,-1.533097214951819,-0.1382300767579509,0.023561944901923447,-1.534668011278614,-0.09424777960769379,-0.014137166941154067,-1.5236724369910497,-0.04398229715025711,-0.05183627878423159,-1.5283848259714345,-0.07853981633974483,-0.007853981633974483,-1.5409511965857936,-0.15079644737231007,0.010995574287564277,-1.5283848259714345,-0.09581857593448868,-0.0015707963267948967,-1.5362388076054088,-0.053407075111026485,-0.025132741228718346,-1.533097214951819,-0.10524335389525807,-0.006283185307179587,0
-1.5268140296446395,-0.12095131716320706,-0.00471238898038469,-1.5315264186250244,-0.0895353906273091,0.00471238898038469,-1.533097214951819,-0.09267698328089889,0.01884955592153876,-1.518960048010665,-0.09267698328089889,-0.00942477796076938,-1.5378096039322038,-0.06597344572538566,0.0031415926535897933,-1.5126768627034854,-0.07225663103256526,-0.028274333882308135,-1.5205308443374599,-0.07696902001294993,-0.03612831551628263,-1.5315264186250244,-0.06440264939859076,-0.00471238898038469,-1.5409511965857936,-0.039269908169872414,-0.0015707963267948967,-1.5221016406642547,-0.06754424205218056,-0.04084070449666732,-1.5362388076054088,-0.10681415022205297,-0.00942477796076938,0
-1.5283848259714345,-0.10210176124166828,-0.0015707963267948967,-1.5409511965857936,-0.09267698328089889,0.0,-1.518960048010665,-0.13194689145077132,-0.015707963267948967,-1.567654734141307,-0.010995574287564277,0.04869468613064179,-1.5440927892393834,-0.09267698328089889,0.029845130209103038,-1.5582299561805373,-0.059690260418206076,0.06126105674500098,-1.518960048010665,-0.053407075111026485,-0.05183627878423159,-1.5299556222982293,-0.11780972450961726,0.0,-1.5268140296446395,-0.03612831551628263,-0.03612831551628263,-1.5393804002589988,-0.08011061266653972,0.007853981633974483,-1.5519467708733579,-0.07539822368615504,0.028274333882308135,0
-1.5299556222982293,-0.05183627878423159,-0.02042035224833366,-1.5378096039322038,-0.0895353906273091,0.014137166941154067,-1.5221016406642547,-0.07382742735936014,0.00471238898038469,-1.548805178219768,-0.045553093477052,0.031415926535897934,-1.5142476590302805,-0.04398229715025711,-0.034557519189487726,-1.5409511965857936,-0.05026548245743669,0.0031415926535897933,-1.5315264186250244,-0.05183627878423159,0.03612831551628263,-1.5409511965857936,-0.045553093477052,0.015707963267948967,-1.5111060663766904,-0.053407075111026485,-0.00471238898038469,-1.5519467708733579,-0.03769911184307752,0.03298672286269283,-1.5425219929125886,-0.04241150082346221,0.017278759594743863,0
-1.5566591598537427,-0.047123889803846894,0.034557519189487726,-1.5158184553570753,-0.07539822368615504,-0.00471238898038469,-1.5268140296446395,-0.06126105674500098,0.012566370614359173,-1.5503759745465628,-0.01884955592153876,0.025132741228718346,-1.5236724369910497,-0.08482300164692443,-0.034557519189487726,-1.5440927892393834,-0.03298672286269283,0.014137166941154067,-1.5283848259714345,-0.053407075111026485,0.025132741228718346,-1.5409511965857936,-0.07853981633974483,0.01884955592153876,-1.5205308443374599,-0.04398229715025711,-0.028274333882308135,-1.547234381892973,-0.047123889803846894,0.025132741228718346,-1.518960048010665,-0.04241150082346221,0.006283185307179587,0
-1.5456635855661782,-0.06440264939859076,0.023561944901923447,-1.5252432333178447,-0.03769911184307752,0.0,-1.5362388076054088,-0.06126105674500098,0.012566370614359173,-1.5126768627034854,-0.045553093477052,0.0031415926535897933,-1.5550883635269477,-0.06754424205218056,0.031415926535897934,-1.5378096039322038,-0.06754424205218056,0.012566370614359173,-1.5268140296446395,-0.06283185307179587,-0.007853981633974483,-1.5236724369910497,-0.06283185307179587,0.00471238898038469,-1.548805178219768,-0.07068583470577035,0.00942477796076938,-1.5252432333178447,-0.04398229715025711,0.0031415926535897933,-1.5315264186250244,-0.07068583470577035,0.00942477796076938,0
-1.5456635855661782,-0.034557519189487726,0.01884955592153876,-1.5142476590302805,-0.06440264939859076,-0.03612831551628263,-1.5456635855661782,-0.07068583470577035,0.03612831551628263,-1.5393804002589988,-0.06911503837897545,0.04241150082346221,-1.5456635855661782,-0.05654866776461627,0.017278759594743863,-1.5252432333178447,-0.034557519189487726,0.014137166941154067,-1.5440927892393834,-0.06440264939859076,0.026703537555513242,-1.518960048010665,-0.06911503837897545,-0.00942477796076938,-1.5456635855661782,-0.06126105674500098,0.03298672286269283,-1.5252432333178447,-0.06440264939859076,0.00942477796076938,-1.5173892516838703,-0.06126105674500098,0.006283185307179587,0
-1.5440927892393834,-0.04084070449666732,0.029845130209103038,-1.5393804002589988,-0.054977871437821374,0.031415926535897934,-1.5252432333178447,-0.031415926535897934,0.025132741228718346,-1.5283848259714345,-0.06911503837897545,0.0,-1.5440927892393834,-0.039269908169872414,0.021991148575128554,-1.5252432333178447,-0.06440264939859076,0.00942477796076938,-1.5221016406642547,-0.06126105674500098,-0.017278759594743863,-1.548805178219768,-0.045553093477052,0.012566370614359173,-1.5205308443374599,-0.06597344572538566,0.006283185307179587,-1.5440927892393834,-0.05183627878423159,0.017278759594743863,-1.5221016406642547,-0.025132741228718346,0.00942477796076938,0
-1.5236724369910497,-0.07225663103256526,-0.00471238898038469,-1.5252432333178447,-0.054977871437821374,-0.00471238898038469,-1.5393804002589988,-0.047123889803846894,-0.010995574287564277,-1.534668011278614,-0.053407075111026485,0.007853981633974483,-1.5221016406642547,-0.053407075111026485,-0.006283185307179587,-1.5268140296446395,-0.06754424205218056,0.0015707963267948967,-1.5503759745465628,-0.039269908169872414,0.029845130209103038,-1.5205308443374599,-0.05026548245743669,0.007853981633974483,-1.5268140296446395,-0.047123889803846894,0.0015707963267948967,-1.5393804002589988,-0.059690260418206076,0.012566370614359173,-1.533097214951819,-0.025132741228718346,-0.0031415926535897933,0
-1.5456635855661782,-0.05183627878423159,0.028274333882308135,-1.518960048010665,-0.07539822368615504,0.0,-1.5456635855661782,-0.07539822368615504,0.034557519189487726,-1.5393804002589988,-0.05026548245743669,0.026703537555513242,-1.5425219929125886,-0.031415926535897934,0.026703537555513242,-1.5111060663766904,-0.06911503837897545,-0.02042035224833366,-1.548805178219768,-0.04398229715025711,0.023561944901923447,-1.5425219929125886,-0.025132741228718346,0.025132741228718346,-1.5362388076054088,-0.04869468613064179,0.017278759594743863,-1.5205308443374599,-0.07068583470577035,0.0,-1.5456635855661782,-0.06126105674500098,0.026703537555513242,0
-1.5362388076054088,-0.05811946409141117,0.029845130209103038,-1.5315264186250244,-0.03612831551628263,-0.0015707963267948967,-1.5126768627034854,-0.07382742735936014,-0.029845130209103038,-1.5582299561805373,-0.028274333882308135,0.025132741228718346,-1.5252432333178447,-0.04241150082346221,0.015707963267948967,-1.5456635855661782,-0.045553093477052,0.031415926535897934,-1.5425219929125886,-0.039269908169872414,0.029845130209103038,-1.5221016406642547,-0.07225663103256526,0.0,-1.547234381892973,-0.06126105674500098,0.01884955592153876,-1.534668011278614,-0.039269908169872414,0.014137166941154067,-1.5205308443374599,0.02042035224833366,-0.00471238898038469,0
-1.5378096039322038,-0.14451326206513052,-0.028274333882308135,-1.4325662500369456,0.0,0.04084070449666732,-1.0068804454755287,-1.4388494353441252,0.2387610416728243,-0.8498008127960391,-1.385442360233099,0.22619467105846508,-0.6518804756198822,-1.441991027997715,-0.07068583470577035,-0.5183627878423159,-1.7640042749906688,0.06283185307179587,-0.3895574890451343,-1.3995795271742528,0.02042035224833366,-0.4696681017116741,-1.580221104755666,0.17592918860102844,-0.31730085801256913,-1.8158405537749007,0.27174776453551713,-0.22776546738526,-1.471836158206818,0.3549999698556466,-0.26703537555513246,-1.4451326206513047,0.1413716694115407,0
-0.2780309498426967,-1.580221104755666,0.0895353906273091,-0.13194689145077132,-1.6069246423111794,-0.15236724369910498,-0.10524335389525807,-1.7875662198925926,0.39269908169872414,-0.20106192982974677,-1.518960048010665,0.10838494654884785,-0.17121679962064373,-1.2519246724555326,-0.36128315516282616,0.014137166941154067,-1.429424657383356,0.03298672286269283,-0.026703537555513242,-1.4796901398407927,-0.2324778563656447,-0.10210176124166828,-1.5032520847427162,-0.35028758087526196,-0.20734511513692636,-1.4922565104551517,-0.5026548245743669,-0.19477874452256716,-1.5755087157752812,-0.034557519189487726,-0.16179202165987436,-1.4828317324943823,-0.5874778262212914,0
-0.08796459430051422,-1.6524777357882312,-0.2167698930976957,-0.12566370614359174,-1.5535175672001529,-0.10838494654884785,-0.0895353906273091,-1.6807520696705394,-0.11466813185602744,-0.11780972450961726,-1.5315264186250244,-0.2528982086139784,-0.1774999849278233,-1.4922565104551517,-0.19792033717615698,-0.19949113350295186,-1.6289157908863077,-0.3549999698556466,-0.334579617607313,-1.6964600329384885,-0.07853981633974483,-0.7759733854366789,-1.3163273218541234,-0.2796017461694916,-1.1058406140636072,-0.9456193887305276,-0.2984513020910303,-1.3571680263507908,-0.6063273821428301,0.2544690049407733,-1.4671237692264334,-0.4885176576332128,-0.10524335389525807,0
-1.4262830647297662,-0.6958627727701392,0.07225663103256526,-1.4058627124814325,-0.5796238445873169,-0.11466813185602744,-0.9754645189396307,-0.4948008429403924,-0.18064157758141308,-0.5827654372409066,-1.152964503867454,-0.06597344572538566,-0.10681415022205297,-2.1032962815783667,-0.04241150082346221,-0.2466150233067988,-1.9540706305328512,-0.10524335389525807,-0.47595128701885364,-1.6289157908863077,-0.11780972450961726,-0.7634070148223198,-1.032013186704247,-0.4461061568097506,-0.7178539213452678,-1.2126547642856602,0.47909287967244346,-0.53249995478347,-1.033583983031042,1.1718140597889928,-0.5183627878423159,-2.20382724649324,1.0414379646650165,0
-0.8670795723907828,-0.6581636609270617,0.2199114857512855,-1.0430087609918113,-1.2487830798019428,0.36128315516282616,-1.082278669161684,-1.3288936924684827,0.19006635554218249,-1.3006193585861743,-0.9220574438286044,-0.039269908169872414,-1.5095352700498956,-0.44139376782936596,0.11466813185602744,-1.1671016708086082,-0.8011061266653973,-0.04869468613064179,-1.5456635855661782,0.1303760951239764,-0.09267698328089889,-1.4624113802460488,0.05183627878423159,-0.38013271108436497,-1.5315264186250244,-0.26703537555513246,0.034557519189487726,-1.5425219929125886,-0.15707963267948966,0.07382742735936014,-1.5158184553570753,-0.05183627878423159,-0.053407075111026485,0
-1.534668011278614,-0.182212373908208,-0.010995574287564277,-1.5550883635269477,-0.14451326206513052,0.0,-1.5378096039322038,-0.09267698328089889,0.00942477796076938,-1.534668011278614,-0.10053096491487339,0.014137166941154067,-1.5393804002589988,-0.11938052083641215,0.04084070449666732,-1.5378096039322038,-0.017278759594743863,-0.0015707963267948967,-1.547234381892973,-0.09581857593448868,0.0,-1.5252432333178447,-0.09896016858807849,-0.045553093477052,-1.5456635855661782,-0.05654866776461627,0.07068583470577035,-1.5221016406642547,-0.07539822368615504,-0.05811946409141117,-1.5142476590302805,-0.07225663103256526,-0.08796459430051422,0
-1.548805178219768,-0.0031415926535897933,-0.025132741228718346,-1.4215706757493816,-0.1382300767579509,-0.3895574890451343,-1.6163494202719484,0.06283185307179587,0.6613052535806515,-1.5503759745465628,0.09896016858807849,0.182212373908208,-1.5283848259714345,0.014137166941154067,0.05183627878423159,-1.5268140296446395,-0.04084070449666732,0.11780972450961726,-1.5236724369910497,0.03612831551628263,0.09896016858807849,-1.5268140296446395,0.04084070449666732,0.10995574287564275,-1.5252432333178447,0.010995574287564277,0.1460840583919254,-1.5221016406642547,0.04869468613064179,0.12409290981679685,-1.5236724369910497,0.08639379797371932,0.11938052083641215,0
-1.5126768627034854,0.17592918860102844,0.15865042900628457,-1.5409511965857936,0.23719024534602942,0.20891591146372127,-1.5158184553570753,0.17121679962064373,0.18849555921538758,-1.5079644737231006,0.17278759594743864,0.11780972450961726,-1.5111060663766904,0.15865042900628457,0.1413716694115407,-1.5079644737231006,0.25918139392115797,0.13665928043115602,-1.5016812884159212,0.11466813185602744,0.14922565104551516,-1.4969688994355363,0.053407075111026485,0.19477874452256716,-1.5063936773963058,-0.12252211349000196,0.3534291735288517,-1.4922565104551517,-0.13351768777756623,0.32672563597333854,-1.504822881069511,-0.12252211349000196,0.3659955441432109,0
-1.5299556222982293,-0.08482300164692443,0.40212385965949354,-1.4875441214747671,-0.20106192982974677,0.2748893571891069,-1.4985396957623311,-0.28902652413026103,0.21205750411731106,-1.4828317324943823,-0.2607521902479528,0.11938052083641215,-1.5252432333178447,-0.22933626371205487,0.18064157758141308,-1.4985396957623311,-0.27331856086231204,0.12252211349000196,-1.5425219929125886,-0.21519909677090085,0.30316369107141505,-1.5001104920891264,-0.25761059759436306,0.16493361431346415,-1.5315264186250244,-0.2403318379996192,0.25132741228718347,-1.5692255304681018,-0.2167698930976957,0.2780309498426967,-1.4624113802460488,-0.2544690049407733,-0.05811946409141117,0
-1.4953981031087415,-0.32672563597333854,0.025132741228718346,-1.5315264186250244,-0.26703537555513246,0.07225663103256526,-1.5095352700498956,-0.3141592653589793,0.0,-1.5221016406642547,-0.3078760800517997,0.021991148575128554,-1.5393804002589988,-0.28902652413026103,0.034557519189487726,-1.5016812884159212,-0.2921681167838508,0.00942477796076938,-1.5268140296446395,-0.30316369107141505,0.026703537555513242,-1.5456635855661782,-0.33143802495372315,0.059690260418206076,-1.5315264186250244,-0.2403318379996192,0.026703537555513242,-1.484402528821177,-0.32672563597333854,-0.19006635554218249,-1.4388494353441252,-0.30944687637859464,-0.44139376782936596,0
-1.448274213304895,-0.26389378290154264,-0.516791991515521,-1.4105751014618173,-0.35185837720205687,-0.46181412007769956,-1.4828317324943823,-0.3361504139341079,-0.26703537555513246,-1.4922565104551517,-0.2748893571891069,-0.30944687637859464,-1.4765485471872029,-0.32201324699295375,-0.2843141351498763,-1.5111060663766904,-0.2324778563656447,-0.2481858196335937,-1.4859733251479723,-0.2167698930976957,-0.29530970943744056,-1.4812609361675875,-0.23090706003884978,-0.3141592653589793,-1.4891149178015621,-0.2481858196335937,-0.3204424506661589,-1.490685714128357,-0.23090706003884978,-0.3440043955680823,-1.4859733251479723,-0.2387610416728243,-0.2905973204570559,0
-1.4922565104551517,-0.2199114857512855,-0.2858849314766712,-1.5032520847427162,-0.26703537555513246,-0.2686061718819273,-1.5001104920891264,-0.21048670779051615,-0.2905973204570559,-1.5221016406642547,-0.22933626371205487,-0.25603980126756815,-1.5032520847427162,-0.2167698930976957,-0.1790707812546182,-1.4105751014618173,-0.2246238747316702,-0.6188937527571893,-1.3964379345206632,-0.23090706003884978,-0.5701990666265474,-1.427853861056561,-0.22933626371205487,-0.4963716392671874,-1.4184290830957915,-0.16964600329384885,-0.5686282702997526,-1.4451326206513047,-0.15865042900628457,-0.5560618996853934,-1.4074335088082275,-0.19320794819577228,-0.5984734005088556,0
-1.3901547492134834,-0.1382300767579509,-0.6173229564303944,-1.3964379345206632,-0.16022122533307945,-0.6173229564303944,-1.4309954537101508,-0.14451326206513052,-0.5639158813193679,-1.4184290830957915,-0.17121679962064373,-0.576482251933727,-1.415287490442202,-0.17121679962064373,-0.5733406592801372,-1.441991027997715,-0.12252211349000196,-0.5073672135547516,-1.4011503235010478,-0.16493361431346415,-0.6126105674500096,-1.3823007675795091,-0.12252211349000196,-0.6298893270447535,-1.4262830647297662,-0.11466813185602744,-0.5843362335677016,-1.412145897788612,-0.11466813185602744,-0.6031857894892403,-1.4247122684029712,-0.10838494654884785,-0.5859070298944964,0
-1.413716694115407,-0.12095131716320706,-0.5623450849925731,-1.4105751014618173,-0.11623892818282235,-0.5623450849925731,-1.412145897788612,-0.12880529879718153,-0.5639158813193679,-1.4357078426905356,-0.10681415022205297,-0.5434955290710343,-1.4027211198278426,-0.10524335389525807,-0.5592034923389833,-1.413716694115407,-0.09424777960769379,-0.5717698629533424,-1.4199998794225863,-0.11309733552923254,-0.5639158813193679,-1.4168582867689967,-0.12409290981679685,-0.5953318078552658,-1.4247122684029712,-0.10681415022205297,-0.5686282702997526,-1.415287490442202,-0.11309733552923254,-0.5560618996853934,-1.4247122684029712,-0.0895353906273091,-0.5497787143782138,0
-1.429424657383356,-0.1350884841043611,-0.5654866776461628,-1.3995795271742528,-0.11623892818282235,-0.6173229564303944,-1.415287490442202,-0.07225663103256526,-0.6141813637768045,-1.4262830647297662,-0.13351768777756623,-0.5749114556069322,-1.36659280431156,-0.010995574287564277,-0.7241371066524475,-1.3241813034880978,-0.02042035224833366,-0.7319910882864218,-1.3336060814488673,0.10995574287564275,-0.7712609964562943,-1.3116149328737385,0.10838494654884785,-0.7806857744170635,-1.3288936924684827,0.08325220532012953,-0.7429866625739862,-1.3210397108345082,0.05654866776461627,-0.7461282552275759,-1.3147565255273284,0.05654866776461627,-0.7461282552275759,0
-1.3116149328737385,0.07853981633974483,-0.7555530331883452,-1.3257520998148926,0.10210176124166828,-0.7367034772668066,-1.3163273218541234,0.09424777960769379,-0.7367034772668066,-1.3210397108345082,0.11780972450961726,-0.7194247176720626,-1.3053317475665591,0.091106186954104,-0.7429866625739862,-1.3257520998148926,0.08325220532012953,-0.7225663103256523,-1.338318470429252,0.12252211349000196,-0.7194247176720626,-1.3241813034880978,0.0895353906273091,-0.7241371066524475,-1.3493140447168162,0.1382300767579509,-0.7037167544041137,-1.3336060814488673,0.17278759594743864,-0.7272786993060372,-1.3807299712527141,0.21362830044410594,-0.637743308678728,0
-1.3571680263507908,0.19006635554218249,-0.6047565858160352,-1.3885839528866886,0.16650441064025906,-0.5717698629533424,-1.3775883785991243,0.1382300767579509,-0.6063273821428301,-1.3870131565598938,0.1790707812546182,-0.6267477343911637,-1.371305193291945,0.15865042900628457,-0.592190215201676,-1.3995795271742528,0.18378317023500287,-0.5984734005088556,-1.3917255455402784,0.14765485471872028,-0.6000441968356505,-1.368163600638355,0.15550883635269477,-0.6220353454107791,-1.4231414720761766,0.20577431881013145,-0.5576326960121882,-1.4812609361675875,0.09896016858807849,-0.5686282702997526,-1.460840583919254,-0.029845130209103038,-0.4696681017116741,0
-1.490685714128357,0.04241150082346221,-0.4241150082346221,-1.4796901398407927,-0.021991148575128554,-0.3534291735288517,-1.5283848259714345,-0.023561944901923447,-0.2528982086139784,-1.4969688994355363,0.0031415926535897933,-0.28902652413026103,-1.504822881069511,-0.014137166941154067,-0.29688050576423547,-1.4953981031087415,0.0,-0.3078760800517997,-1.5142476590302805,0.0,-0.30316369107141505,-1.5393804002589988,-0.00471238898038469,-0.1869247628885927,-1.4938273067819468,0.04398229715025711,-0.2544690049407733,-1.5236724369910497,-0.010995574287564277,-0.2167698930976957,-1.5205308443374599,0.0,-0.22619467105846508,0
-1.5126768627034854,-0.014137166941154067,-0.2356194490192345,-1.5158184553570753,-0.021991148575128554,-0.23090706003884978,-1.5158184553570753,0.054977871437821374,-0.2528982086139784,-1.5299556222982293,-0.006283185307179587,-0.2214822820780804,-1.5111060663766904,-0.007853981633974483,-0.22776546738526,-1.5158184553570753,-0.010995574287564277,-0.20734511513692636,-1.5299556222982293,0.0,-0.21519909677090085,-1.534668011278614,-0.02042035224833366,-0.18849555921538758,-1.5252432333178447,-0.03298672286269283,-0.19320794819577228,-1.534668011278614,-0.00471238898038469,-0.20734511513692636,-1.5268140296446395,0.006283185307179587,-0.2356194490192345,0
-1.5221016406642547,0.0,-0.20577431881013145,-1.5111060663766904,-0.0031415926535897933,-0.22776546738526,-1.5173892516838703,-0.07068583470577035,-0.25132741228718347,-1.5598007525073323,-0.015707963267948967,-0.18535396656179778,-1.4372786390173304,0.06283185307179587,-0.2780309498426967,-1.5236724369910497,-0.05183627878423159,-0.12723450247038665,-1.533097214951819,-0.010995574287564277,-0.17435839227423355,-1.5393804002589988,-0.0015707963267948967,-0.1869247628885927,-1.533097214951819,0.0015707963267948967,-0.24190263432641412,-1.5205308443374599,-0.053407075111026485,-0.21519909677090085,-1.533097214951819,-0.047123889803846894,-0.18535396656179778,0
-1.518960048010665,-0.01884955592153876,-0.20263272615654165,-1.5315264186250244,-0.04398229715025711,-0.19320794819577228,-1.5268140296446395,-0.05811946409141117,-0.18378317023500287,-1.5205308443374599,-0.045553093477052,-0.18064157758141308,-1.5299556222982293,0.0,-0.16022122533307945,-1.5315264186250244,-0.03612831551628263,-0.18064157758141308,-1.5598007525073323,-0.034557519189487726,-0.1382300767579509,-1.5393804002589988,0.010995574287564277,-0.15236724369910498,-1.5268140296446395,-0.012566370614359173,-0.16022122533307945,-1.5315264186250244,-0.031415926535897934,-0.14765485471872028,-1.5299556222982293,-0.023561944901923447,-0.15079644737231007,0
-1.5142476590302805,-0.029845130209103038,-0.17435839227423355,-1.533097214951819,0.014137166941154067,-0.13665928043115602,-1.5456635855661782,0.021991148575128554,-0.13351768777756623,-1.5456635855661782,0.00942477796076938,-0.13194689145077132,-1.5252432333178447,0.0,-0.15236724369910498,-1.5315264186250244,-0.023561944901923447,-0.13194689145077132,-1.5095352700498956,-0.03769911184307752,-0.2214822820780804,-1.5393804002589988,0.0,-0.15707963267948966,-1.5315264186250244,-0.02042035224833366,-0.15236724369910498,-1.533097214951819,0.0,-0.15079644737231007,-1.5268140296446395,-0.014137166941154067,-0.15707963267948966,0
-1.5409511965857936,-0.0031415926535897933,-0.12566370614359174,-1.533097214951819,-0.006283185307179587,-0.13351768777756623,-1.5283848259714345,0.014137166941154067,-0.1350884841043611,-1.5283848259714345,0.02042035224833366,-0.1429424657383356,-1.5299556222982293,-0.0031415926535897933,-0.1350884841043611,-1.5362388076054088,-0.012566370614359173,-0.1413716694115407,-1.5362388076054088,-0.00942477796076938,-0.15707963267948966,-1.5362388076054088,0.010995574287564277,-0.14765485471872028,-1.547234381892973,0.006283185307179587,-0.11309733552923254,-1.5362388076054088,0.012566370614359173,-0.12409290981679685,-1.534668011278614,-0.029845130209103038,-0.1350884841043611,0
-1.5315264186250244,-0.0015707963267948967,-0.13665928043115602,-1.533097214951819,0.02042035224833366,-0.13351768777756623,-1.5299556222982293,0.012566370614359173,-0.1460840583919254,-1.5236724369910497,-0.00942477796076938,-0.15393804002589986,-1.533097214951819,-0.028274333882308135,-0.14922565104551516,-1.5550883635269477,0.017278759594743863,-0.14765485471872028,-1.518960048010665,-0.012566370614359173,-0.17278759594743864,-1.5315264186250244,0.010995574287564277,-0.13665928043115602,-1.5236724369910497,0.029845130209103038,-0.1303760951239764,-1.5205308443374599,-0.015707963267948967,-0.15707963267948966,-1.5362388076054088,0.0,-0.17435839227423355,0
-1.5221016406642547,0.014137166941154067,-0.16336281798666927,-1.5362388076054088,0.021991148575128554,-0.11780972450961726,-1.5425219929125886,0.03769911184307752,-0.11623892818282235,-1.5362388076054088,-0.02042035224833366,-0.12095131716320706,-1.5425219929125886,-0.007853981633974483,-0.15393804002589986,-1.5283848259714345,0.0031415926535897933,-0.15236724369910498,-1.534668011278614,-0.0031415926535897933,-0.13665928043115602,-1.5315264186250244,0.00471238898038469,-0.12566370614359174,-1.5205308443374599,-0.006283185307179587,-0.14922565104551516,-1.5362388076054088,0.021991148575128554,-0.12409290981679685,-1.5315264186250244,-0.0015707963267948967,-0.11466813185602744,0
-1.5299556222982293,0.0031415926535897933,-0.11309733552923254,-1.5393804002589988,-0.012566370614359173,-0.10053096491487339,-1.5409511965857936,0.026703537555513242,-0.10838494654884785,-1.548805178219768,0.026703537555513242,-0.11309733552923254,-1.534668011278614,-0.012566370614359173,-0.11152653920243764,-1.5315264186250244,0.00471238898038469,-0.11623892818282235,-1.5236724369910497,0.010995574287564277,-0.10681415022205297,-1.5425219929125886,0.00942477796076938,-0.10367255756846318,-1.533097214951819,0.00942477796076938,-0.12723450247038665,-1.5393804002589988,0.00471238898038469,-0.13665928043115602,-1.5362388076054088,0.007853981633974483,-0.12252211349000196,0
-1.5299556222982293,0.023561944901923447,-0.12566370614359174,-1.533097214951819,-0.010995574287564277,-0.10053096491487339,-1.5315264186250244,-0.006283185307179587,-0.11466813185602744,-1.5440927892393834,0.012566370614359173,-0.1398008730847458,-1.5205308443374599,0.0,-0.16493361431346415,-1.5315264186250244,0.02042035224833366,-0.11309733552923254,-1.5550883635269477,0.05026548245743669,-0.08011061266653972,-1.5268140296446395,-0.0031415926535897933,-0.1382300767579509,-1.5409511965857936,0.028274333882308135,-0.11466813185602744,-1.5158184553570753,0.0015707963267948967,-0.1413716694115407,-1.5425219929125886,0.007853981633974483,-0.11938052083641215,0
-1.5378096039322038,0.026703537555513242,-0.12409290981679685,-1.5315264186250244,-0.023561944901923447,-0.11309733552923254,-1.5440927892393834,0.017278759594743863,-0.1460840583919254,-1.5299556222982293,0.02042035224833366,-0.13194689145077132,-1.5378096039322038,0.01884955592153876,-0.11152653920243764,-1.5393804002589988,-0.012566370614359173,-0.10367255756846318,-1.5205308443374599,0.01884955592153876,-0.1382300767579509,-1.5425219929125886,0.00471238898038469,-0.10210176124166828,-1.5268140296446395,-0.0015707963267948967,-0.12095131716320706,-1.5393804002589988,0.0,-0.11309733552923254,-1.5315264186250244,0.0031415926535897933,-0.11780972450961726,0
-1.5315264186250244,0.006283185307179587,-0.12095131716320706,-1.567654734141307,0.059690260418206076,-0.12252211349000196,-1.5393804002589988,-0.014137166941154067,-0.09738937226128358,-1.5378096039322038,-0.015707963267948967,-0.10210176124166828,-1.5409511965857936,0.01884955592153876,-0.11152653920243764,-1.5378096039322038,-0.06911503837897545,-0.07853981633974483,-1.5393804002589988,-0.09581857593448868,-0.017278759594743863,-1.5063936773963058,-0.09738937226128358,-0.034557519189487726,-1.504822881069511,-0.24190263432641412,0.17121679962064373,-1.4624113802460488,-0.42568580456141697,0.24190263432641412,-1.3728759896187397,-0.5403539364174444,0.4775220833456486,0
-1.2723450247038663,-0.7665486074759095,0.639314105005523,-1.1828096340765573,-1.0571459279329654,0.7429866625739862,-1.0728538912009145,-0.728849495632832,0.6220353454107791,-0.31730085801256913,-1.638340568847077,-0.3691371367968007,-0.29530970943744056,-1.5440927892393834,0.17592918860102844,-0.2230530784048753,-1.6037830496575896,-0.014137166941154067,-0.25603980126756815,-1.5535175672001529,0.10524335389525807,-0.10681415022205297,-1.5126768627034854,-0.30002209841782523,0.007853981633974483,-1.5896458827164353,-0.5199335841691108,0.034557519189487726,-1.5566591598537427,0.11623892818282235,0.16022122533307945,-1.5283848259714345,-0.2230530784048753,1
0.2497566159603886,-1.6084954386379742,-0.19477874452256716,0.2481858196335937,-1.518960048010665,-0.2403318379996192,0.2905973204570559,-1.5268140296446395,-0.16179202165987436,0.2764601535159018,-1.5582299561805373,-0.18535396656179778,0.2230530784048753,-1.5315264186250244,-0.16650441064025906,0.17592918860102844,-1.561371548834127,-0.1429424657383356,0.20106192982974677,-1.504822881069511,-0.26389378290154264,0.17592918860102844,-1.5550883635269477,-0.18849555921538758,0.15079644737231007,-1.5880750863896402,-0.1774999849278233,0.16336281798666927,-1.580221104755666,-0.17121679962064373,0.10995574287564275,-1.534668011278614,-0.1429424657383356,1
0.1413716694115407,-1.567654734141307,-0.1350884841043611,0.1398008730847458,-1.5456635855661782,-0.1790707812546182,0.13351768777756623,-1.548805178219768,-0.15079644737231007,0.12880529879718153,-1.5865042900628454,-0.13665928043115602,0.15236724369910498,-1.580221104755666,-0.13351768777756623,0.10053096491487339,-1.5786503084288712,-0.11152653920243764,0.15550883635269477,-1.6069246423111794,-0.12566370614359174,0.11938052083641215,-1.534668011278614,-0.17121679962064373,0.09581857593448868,-1.5629423451609221,-0.11938052083641215,0.12880529879718153,-1.5880750863896402,-0.16964600329384885,0.10681415022205297,-1.5519467708733579,-0.20577431881013145,1
0.11152653920243764,-1.5582299561805373,-0.19006635554218249,0.09581857593448868,-1.5707963267948966,-0.12252211349000196,0.08796459430051422,-1.5440927892393834,-0.16650441064025906,0.12409290981679685,-1.548805178219768,-0.15865042900628457,0.08168140899333463,-1.566083937814512,-0.17121679962064373,0.12566370614359174,-1.567654734141307,-0.17435839227423355,0.0895353906273091,-1.6132078276183586,-0.1303760951239764,0.07853981633974483,-1.5739379194484864,-0.1429424657383356,0.07068583470577035,-1.5362388076054088,-0.15865042900628457,0.13351768777756623,-1.5598007525073323,-0.182212373908208,0.08639379797371932,-1.533097214951819,-0.1869247628885927,1
0.11780972450961726,-1.518960048010665,-0.15865042900628457,0.10210176124166828,-1.5362388076054088,-0.11623892818282235,0.059690260418206076,-1.5063936773963058,-0.15550883635269477,0.09424777960769379,-1.5205308443374599,-0.16807520696705394,0.08325220532012953,-1.4671237692264334,-0.23719024534602942,0.1382300767579509,-1.5268140296446395,-0.17592918860102844,0.07225663103256526,-1.5440927892393834,-0.14922565104551516,0.09581857593448868,-1.5095352700498956,-0.19006635554218249,0.10053096491487339,-1.5252432333178447,-0.182212373908208,0.07853981633974483,-1.5205308443374599,-0.15707963267948966,0.10838494654884785,-1.5268140296446395,-0.1350884841043611,1
0.09896016858807849,-1.518960048010665,-0.11309733552923254,0.08011061266653972,-1.5158184553570753,-0.11623892818282235,0.10053096491487339,-1.5142476590302805,-0.07068583470577035,0.09267698328089889,-1.4624113802460488,0.04084070449666732,0.08011061266653972,-1.5001104920891264,-0.021991148575128554,0.09896016858807849,-1.5770795121020762,0.03769911184307752,0.06911503837897545,-1.5268140296446395,-0.029845130209103038,0.12095131716320706,-1.4859733251479723,-0.1790707812546182,0.15393804002589986,-1.5755087157752812,0.19634954084936207,0.09738937226128358,-1.5221016406642547,-0.21205750411731106,0.10524335389525807,-1.5126768627034854,-0.1303760951239764,1
0.10053096491487339,-1.533097214951819,-0.07696902001294993,0.059690260418206076,-1.5032520847427162,-0.10838494654884785,0.08482300164692443,-1.5393804002589988,-0.07696902001294993,0.08168140899333463,-1.5158184553570753,-0.12095131716320706,0.07382742735936014,-1.5299556222982293,-0.09424777960769379,0.05183627878423159,-1.5236724369910497,-0.08168140899333463,0.05654866776461627,-1.5409511965857936,-0.10838494654884785,0.06754424205218056,-1.5032520847427162,-0.15865042900628457,0.031415926535897934,-1.4828317324943823,-0.10524335389525807,0.10210176124166828,-1.5440927892393834,-0.03769911184307752,-0.017278759594743863,-1.4262830647297662,-0.13351768777756623,1
0.21205750411731106,-1.6603317174222059,0.007853981633974483,-0.0015707963267948967,-1.5315264186250244,-0.08639379797371932,0.10210176124166828,-1.5755087157752812,-0.10524335389525807,0.05811946409141117,-1.5440927892393834,-0.07853981633974483,0.031415926535897934,-1.5001104920891264,-0.1303760951239764,0.11466813185602744,-1.5550883635269477,-0.04084070449666732,0.04869468613064179,-1.5111060663766904,-0.06126105674500098,0.06283185307179587,-1.5299556222982293,-0.06283185307179587,0.06754424205218056,-1.5299556222982293,-0.08011061266653972,0.03769911184307752,-1.518960048010665,-0.07696902001294993,0.06597344572538566,-1.5378096039322038,-0.08168140899333463,1
0.047123889803846894,-1.547234381892973,-0.03612831551628263,0.06597344572538566,-1.5519467708733579,-0.05026548245743669,0.06440264939859076,-1.4953981031087415,-0.1350884841043611,0.028274333882308135,-1.5425219929125886,-0.05026548245743669,0.06754424205218056,-1.5315264186250244,-0.10838494654884785,0.039269908169872414,-1.5221016406642547,-0.11152653920243764,0.04398229715025711,-1.5205308443374599,-0.09896016858807849,0.07853981633974483,-1.5315264186250244,-0.09424777960769379,0.06597344572538566,-1.5268140296446395,-0.08639379797371932,0.06597344572538566,-1.534668011278614,-0.08011061266653972,0.05183627878423159,-1.5503759745465628,-0.05654866776461627,1
0.04869468613064179,-1.5001104920891264,-0.08639379797371932,0.06440264939859076,-1.5236724369910497,-0.047123889803846894,0.06126105674500098,-1.4953981031087415,-0.09896016858807849,0.07225663103256526,-1.5252432333178447,-0.07539822368615504,0.07225663103256526,-1.5283848259714345,-0.06911503837897545,0.04398229715025711,-1.547234381892973,-0.05183627878423159,0.05811946409141117,-1.5079644737231006,-0.10995574287564275,0.07225663103256526,-1.533097214951819,-0.08639379797371932,0.053407075111026485,-1.5205308443374599,-0.06597344572538566,0.047123889803846894,-1.5299556222982293,-0.06754424205218056,0.047123889803846894,-1.5205308443374599,-0.07382742735936014,1
0.03769911184307752,-1.5111060663766904,-0.04241150082346221,0.06597344572538566,-1.5519467708733579,-0.0015707963267948967,0.07696902001294993,-1.5566591598537427,-0.029845130209103038,0.04869468613064179,-1.5393804002589988,0.014137166941154067,-0.11152653920243764,-1.4309954537101508,0.03298672286269283,-0.026703537555513242,-1.5236724369910497,-0.20734511513692636,-0.07225663103256526,-1.4215706757493816,0.05654866776461627,-0.012566370614359173,-1.5880750863896402,0.3974114706791088,-0.0031415926535897933,-1.5252432333178447,0.24504422698000392,-0.014137166941154067,-1.548805178219768,0.243473430653209,-0.12095131716320706,-1.5063936773963058,0.21834068942449059,1
-0.04084070449666732,-1.5252432333178447,0.3738495257771854,0.034557519189487726,-1.5001104920891264,0.2481858196335937,-0.05654866776461627,-1.4938273067819468,0.46338491640449453,-0.09581857593448868,-1.4529866022852793,0.4115486376202629,-0.10838494654884785,-1.4388494353441252,0.4806636759992384,-0.16807520696705394,-1.44356182432451,0.3848451000647497,-0.11466813185602744,-1.4812609361675875,0.439822971502571,-0.10995574287564275,-1.4388494353441252,0.4068362486398782,-0.12880529879718153,-1.484402528821177,0.4429645641561608,-0.09896016858807849,-1.4686945655532284,0.3817035074111599,-0.11152653920243764,-1.4734069545336133,0.3691371367968007,1
-0.10995574287564275,-1.4796901398407927,0.4209734155810323,-0.11780972450961726,-1.460840583919254,0.4162610266006476,-0.10995574287564275,-1.4781193435139977,0.4241150082346221,-0.12252211349000196,-1.470265361880023,0.44767695313654554,-0.11780972450961726,-1.4325662500369456,0.40997784129346804,-0.12095131716320706,-1.4168582867689967,0.5042256209011619,-0.10367255756846318,-1.4655529728996386,0.39269908169872414,-0.10210176124166828,-1.4514158059584845,0.39426987802551905,-0.10524335389525807,-1.4938273067819468,0.45081854579013536,-0.10681415022205297,-1.457698991265664,0.4272566008882119,-0.11938052083641215,-1.4231414720761766,0.35657076618244155,1
-0.10681415022205297,-1.4891149178015621,0.47438049069205884,-0.12095131716320706,-1.4639821765728436,0.3911282853719293,-0.11780972450961726,-1.5142476590302805,0.4461061568097506,-0.08796459430051422,-1.5001104920891264,0.2748893571891069,-0.1398008730847458,-1.504822881069511,0.3361504139341079,-0.11780972450961726,-1.4859733251479723,0.2764601535159018,-0.16650441064025906,-1.4796901398407927,0.34086280291449256,-0.14451326206513052,-1.5001104920891264,0.3440043955680823,-0.12723450247038665,-1.4671237692264334,0.32515483964654357,-0.13194689145077132,-1.4592697875924587,0.318871654339364,-0.12566370614359174,-1.4859733251479723,0.34714598822167214,1
-0.12880529879718153,-1.5173892516838703,0.3581415625092364,-0.12095131716320706,-1.490685714128357,0.2858849314766712,-0.1350884841043611,-1.4875441214747671,0.3361504139341079,-0.11780972450961726,-1.4891149178015621,0.3298672286269283,-0.1350884841043611,-1.4985396957623311,0.38327430373795474,-0.12095131716320706,-1.4859733251479723,0.3440043955680823,-0.12409290981679685,-1.4859733251479723,0.3282964323001334,-0.1303760951239764,-1.471836158206818,0.3298672286269283,-0.12880529879718153,-1.4781193435139977,0.35185837720205687,-0.12880529879718153,-1.484402528821177,0.2937389131106457,-0.11938052083641215,-1.4938273067819468,0.3581415625092364,1
-0.12566370614359174,-1.4781193435139977,0.27331856086231204,-0.11152653920243764,-1.5205308443374599,0.31258846903218446,-0.12880529879718153,-1.4686945655532284,0.3204424506661589,-0.12723450247038665,-1.4922565104551517,0.318871654339364,-0.11309733552923254,-1.4922565104551517,0.3282964323001334,-0.07382742735936014,-1.4247122684029712,0.23404865269243957,-0.031415926535897934,-1.581791901082461,0.21362830044410594,-0.015707963267948967,-1.547234381892973,-0.09738937226128358,-0.029845130209103038,-1.4938273067819468,-0.14765485471872028,0.06283185307179587,-1.5692255304681018,-0.23719024534602942,0.03612831551628263,-1.5205308443374599,-0.27331856086231204,1
0.04084070449666732,-1.5645131414877171,-0.2167698930976957,0.05183627878423159,-1.5173892516838703,-0.2764601535159018,0.012566370614359173,-1.5566591598537427,-0.2701769682087222,0.023561944901923447,-1.504822881069511,-0.2905973204570559,-0.029845130209103038,-1.5158184553570753,-0.28117254249628654,-0.012566370614359173,-1.5079644737231006,-0.2466150233067988,-0.023561944901923447,-1.5032520847427162,-0.2403318379996192,-0.023561944901923447,-1.5158184553570753,-0.24190263432641412,-0.026703537555513242,-1.5095352700498956,-0.2497566159603886,0.025132741228718346,-1.5425219929125886,-0.2921681167838508,0.04084070449666732,-1.4859733251479723,-0.3361504139341079,1
0.05026548245743669,-1.471836158206818,-0.37070793312359557,0.07382742735936014,-1.4734069545336133,-0.41783182292744253,0.09424777960769379,-1.4624113802460488,-0.47595128701885364,0.21205750411731106,-1.534668011278614,-0.5246459731494955,0.11309733552923254,-1.4058627124814325,-0.5670574739729577,0.15707963267948966,-1.4262830647297662,-0.5780530482605221,0.1398008730847458,-1.4042919161546374,-0.5670574739729577,0.16807520696705394,-1.427853861056561,-0.5230751768227005,0.1303760951239764,-1.413716694115407,-0.5450663253978292,0.12723450247038665,-1.460840583919254,-0.49165925028680263,0.16022122533307945,-1.4655529728996386,-0.4948008429403924,1
0.09424777960769379,-1.4309954537101508,-0.5089380098815466,0.15707963267948966,-1.44356182432451,-0.5544911033585984,0.1382300767579509,-1.4215706757493816,-0.5592034923389833,0.11466813185602744,-1.44356182432451,-0.5592034923389833,0.1460840583919254,-1.4953981031087415,-0.4963716392671874,0.10053096491487339,-1.415287490442202,-0.560774288665778,0.12409290981679685,-1.4404202316709203,-0.53249995478347,0.11309733552923254,-1.4184290830957915,-0.5199335841691108,0.11466813185602744,-1.427853861056561,-0.5403539364174444,0.10838494654884785,-1.4686945655532284,-0.4995132319207772,0.11309733552923254,-1.4529866022852793,-0.5042256209011619,1
0.11938052083641215,-1.4765485471872029,-0.4822344723260332,0.11309733552923254,-1.4388494353441252,-0.5277875658030853,0.10210176124166828,-1.4671237692264334,-0.46809730538487915,0.12095131716320706,-1.4765485471872029,-0.4948008429403924,0.08639379797371932,-1.427853861056561,-0.5152211951887261,0.11938052083641215,-1.4671237692264334,-0.4995132319207772,0.0895353906273091,-1.4074335088082275,-0.46809730538487915,0.11938052083641215,-1.4467034169781,-0.46809730538487915,0.091106186954104,-1.4451326206513047,-0.4963716392671874,0.091106186954104,-1.474977750860408,-0.46338491640449453,0.11466813185602744,-1.4624113802460488,-0.4728096943652638,1
0.0895353906273091,-1.457698991265664,-0.5089380098815466,0.10995574287564275,-1.4372786390173304,-0.5105088062083414,0.08325220532012953,-1.4514158059584845,-0.5136503988619312,0.12409290981679685,-1.4671237692264334,-0.501084028247572,0.10681415022205297,-1.4199998794225863,-0.5230751768227005,0.10053096491487339,-1.4796901398407927,-0.4822344723260332,0.08796459430051422,-1.4592697875924587,-0.4948008429403924,0.09267698328089889,-1.4734069545336133,-0.4963716392671874,0.09738937226128358,-1.448274213304895,-0.5089380098815466,0.10367255756846318,-1.4215706757493816,-0.5309291584566751,0.09267698328089889,-1.4529866022852793,-0.4932300466135976,1
0.09896016858807849,-1.474977750860408,-0.4963716392671874,0.10210176124166828,-1.4529866022852793,-0.5057964172279568,0.0895353906273091,-1.4341370463637408,-0.5073672135547516,0.10210176124166828,-1.4404202316709203,-0.5073672135547516,0.10210176124166828,-1.4247122684029712,-0.5356415474370597,0.10995574287564275,-1.4891149178015621,-0.45081854579013536,0.12409290981679685,-1.4199998794225863,-0.49008845396000783,0.12252211349000196,-1.4781193435139977,-0.47438049069205884,0.12723450247038665,-1.4498450096316895,-0.4932300466135976,0.09424777960769379,-1.4168582867689967,-0.486946861306418,0.09267698328089889,-1.4498450096316895,-0.47595128701885364,1
0.08639379797371932,-1.4529866022852793,-0.46338491640449453,0.12409290981679685,-1.4734069545336133,-0.45081854579013536,0.07853981633974483,-1.457698991265664,-0.46024332375090476,0.11152653920243764,-1.4529866022852793,-0.4696681017116741,0.091106186954104,-1.4514158059584845,-0.49165925028680263,0.10524335389525807,-1.4467034169781,-0.4979424355939822,0.09424777960769379,-1.4655529728996386,-0.48380526865282825,0.09738937226128358,-1.457698991265664,-0.45238934211693016,0.091106186954104,-1.4451326206513047,-0.46181412007769956,0.09896016858807849,-1.457698991265664,-0.46024332375090476,0.09267698328089889,-1.471836158206818,-0.46809730538487915,1
0.10053096491487339,-1.4686945655532284,-0.4728096943652638,0.10838494654884785,-1.471836158206818,-0.46024332375090476,0.08168140899333463,-1.471836158206818,-0.4335397861953914,0.08168140899333463,-1.4592697875924587,-0.4429645641561608,0.0895353906273091,-1.4372786390173304,-0.4351105825221864,0.10053096491487339,-1.484402528821177,-0.4492477494633404,0.12880529879718153,-1.368163600638355,-0.47438049069205884,0.0031415926535897933,-1.6320573835398977,-0.32515483964654357,-0.05183627878423159,-1.4592697875924587,-0.39269908169872414,0.17121679962064373,-1.4372786390173304,-0.4539601384437252,0.05811946409141117,-1.5032520847427162,-0.3534291735288517,1
0.04869468613064179,-1.413716694115407,-0.46338491640449453,0.08796459430051422,-1.460840583919254,-0.46181412007769956,0.03298672286269283,-1.457698991265664,-0.4131194339470578,0.08639379797371932,-1.490685714128357,-0.4194026192542374,0.08796459430051422,-1.5393804002589988,-0.39426987802551905,0.09424777960769379,-1.3995795271742528,-0.45867252742410974,0.06754424205218056,-1.4781193435139977,-0.40997784129346804,0.08168140899333463,-1.457698991265664,-0.36285395148962113,0.11309733552923254,-1.4404202316709203,-0.3549999698556466,0.07853981633974483,-1.44356182432451,-0.19163715186897737,-0.21834068942449059,-2.2698006922186256,-0.4775220833456486,1
-0.00471238898038469,-1.1309733552923256,-0.5796238445873169,0.1398008730847458,-1.59435827169682,0.054977871437821374,0.15393804002589986,-1.6823228659973344,-0.34714598822167214,-0.18378317023500287,-1.533097214951819,-0.26546457922833755,-0.07225663103256526,-1.3995795271742528,0.2324778563656447,0.12252211349000196,-1.8818139995002863,0.6958627727701392,0.11780972450961726,-1.0414379646650165,1.0838494654884787,0.026703537555513242,-1.2079423753052756,0.47909287967244346,-0.04084070449666732,-1.6933184402848986,0.6628760499074463,-0.07068583470577035,-1.3948671381938684,0.0895353906273091,-0.11309733552923254,-1.3917255455402784,0.2858849314766712,1
-0.07853981633974483,-1.5409511965857936,0.2905973204570559,0.053407075111026485,-1.4969688994355363,0.37070793312359557,0.20891591146372127,-1.3493140447168162,-0.10838494654884785,0.14451326206513052,-1.5126768627034854,-0.09424777960769379,0.18849555921538758,-1.5095352700498956,-0.32672563597333854,0.16650441064025906,-1.4514158059584845,-0.3597123588360313,0.091106186954104,-1.448274213304895,-0.4649557127312894,0.19792033717615698,-1.4671237692264334,-0.2748893571891069,0.20420352248333656,-1.5032520847427162,-0.3361504139341079,0.20420352248333656,-1.474977750860408,-0.3754203221039803,0.09896016858807849,-1.4309954537101508,-0.3282964323001334,1
0.14451326206513052,-1.4765485471872029,-0.39269908169872414,0.11309733552923254,-1.4639821765728436,-0.38798669271833947,0.091106186954104,-1.429424657383356,-0.3534291735288517,0.1398008730847458,-1.4781193435139977,-0.3691371367968007,0.10838494654884785,-1.4514158059584845,-0.3141592653589793,0.1398008730847458,-1.547234381892973,-0.38798669271833947,0.13194689145077132,-1.4592697875924587,-0.4052654523130833,0.11623892818282235,-1.5582299561805373,-0.3738495257771854,0.09424777960769379,-1.5221016406642547,-0.3330088212805181,0.10524335389525807,-1.4828317324943823,-0.31101767270538955,0.04869468613064179,-1.518960048010665,-0.31730085801256913,1
0.03769911184307752,-1.4561281949388691,-0.33772121026090274,0.06440264939859076,-1.5126768627034854,-0.3597123588360313,0.054977871437821374,-1.4859733251479723,-0.2921681167838508,0.07068583470577035,-1.4891149178015621,-0.3361504139341079,0.06911503837897545,-1.5126768627034854,-0.3534291735288517,0.039269908169872414,-1.4655529728996386,-0.2905973204570559,0.04869468613064179,-1.5126768627034854,-0.31730085801256913,0.054977871437821374,-1.490685714128357,-0.28902652413026103,0.05654866776461627,-1.4592697875924587,-0.35185837720205687,0.07225663103256526,-1.5268140296446395,-0.3282964323001334,0.045553093477052,-1.534668011278614,-0.3204424506661589,1
0.053407075111026485,-1.4985396957623311,-0.334579617607313,0.03769911184307752,-1.504822881069511,-0.30473448739820996,0.03612831551628263,-1.4922565104551517,-0.31730085801256913,0.04869468613064179,-1.5393804002589988,-0.32515483964654357,0.03612831551628263,-1.5205308443374599,-0.26232298657474773,0.034557519189487726,-1.5315264186250244,-0.2764601535159018,0.031415926535897934,-1.4671237692264334,-0.2937389131106457,0.045553093477052,-1.471836158206818,-0.32672563597333854,0.045553093477052,-1.5283848259714345,-0.30159289474462014,0.029845130209103038,-1.5629423451609221,-0.2466150233067988,0.023561944901923447,-1.5095352700498956,-0.2843141351498763,1
0.01884955592153876,-1.5158184553570753,-0.25603980126756815,0.028274333882308135,-1.4859733251479723,-0.2827433388230814,0.025132741228718346,-1.5252432333178447,-0.27174776453551713,0.03612831551628263,-1.4875441214747671,-0.30316369107141505,0.04869468613064179,-1.5283848259714345,-0.2780309498426967,0.03298672286269283,-1.5535175672001529,-0.30002209841782523,0.010995574287564277,-1.5503759745465628,-0.24504422698000392,0.03298672286269283,-1.4812609361675875,-0.2827433388230814,0.03612831551628263,-1.534668011278614,-0.2858849314766712,0.023561944901923447,-1.490685714128357,-0.2984513020910303,0.03298672286269283,-1.5111060663766904,-0.30473448739820996,1
0.029845130209103038,-1.4969688994355363,-0.2701769682087222,0.029845130209103038,-1.4859733251479723,-0.28117254249628654,0.029845130209103038,-1.5409511965857936,-0.2701769682087222,0.031415926535897934,-1.567654734141307,-0.26389378290154264,0.026703537555513242,-1.5063936773963058,-0.2764601535159018,0.026703537555513242,-1.5598007525073323,-0.243473430653209,0.04084070449666732,-1.490685714128357,-0.2796017461694916,0.023561944901923447,-1.4985396957623311,-0.2701769682087222,0.039269908169872414,-1.5173892516838703,-0.30944687637859464,0.04084070449666732,-1.4875441214747671,-0.30473448739820996,0.014137166941154067,-1.5252432333178447,-0.2403318379996192,1
0.04398229715025711,-1.484402528821177,-0.2796017461694916,0.028274333882308135,-1.5158184553570753,-0.2466150233067988,0.05026548245743669,-1.4953981031087415,-0.30159289474462014,0.028274333882308135,-1.4985396957623311,-0.26232298657474773,0.017278759594743863,-1.5849334937360509,-0.2324778563656447,0.05026548245743669,-1.624203401905923,-0.23090706003884978,0.007853981633974483,-1.4859733251479723,-0.2827433388230814,0.034557519189487726,-1.5095352700498956,-0.27174776453551713,0.034557519189487726,-1.4985396957623311,-0.3141592653589793,0.053407075111026485,-1.5079644737231006,-0.30473448739820996,0.023561944901923447,-1.4938273067819468,-0.27331856086231204,1
0.03298672286269283,-1.518960048010665,-0.26703537555513246,0.00471238898038469,-1.5032520847427162,-0.25132741228718347,0.06597344572538566,-1.4686945655532284,-0.30316369107141505,0.028274333882308135,-1.5236724369910497,-0.26546457922833755,0.017278759594743863,-1.4529866022852793,-0.2246238747316702,0.04398229715025711,-1.5503759745465628,-0.26389378290154264,0.025132741228718346,-1.4796901398407927,-0.26703537555513246,0.031415926535897934,-1.4969688994355363,-0.26546457922833755,0.02042035224833366,-1.5126768627034854,-0.26389378290154264,0.021991148575128554,-1.5268140296446395,-0.25132741228718347,0.028274333882308135,-1.5252432333178447,-0.2466150233067988,1
0.025132741228718346,-1.474977750860408,-0.2858849314766712,0.017278759594743863,-1.5032520847427162,-0.2497566159603886,0.023561944901923447,-1.5221016406642547,-0.2466150233067988,0.01884955592153876,-1.518960048010665,-0.2403318379996192,0.023561944901923447,-1.5001104920891264,-0.26232298657474773,0.007853981633974483,-1.5268140296446395,-0.2324778563656447,0.021991148575128554,-1.5079644737231006,-0.26232298657474773,0.00942477796076938,-1.4891149178015621,-0.21519909677090085,0.023561944901923447,-1.5016812884159212,-0.2481858196335937,0.025132741228718346,-1.5158184553570753,-0.25132741228718347,0.01884955592153876,-1.5236724369910497,-0.2199114857512855,1
0.023561944901923447,-1.504822881069511,-0.243473430653209,0.012566370614359173,-1.4922565104551517,-0.2528982086139784,0.029845130209103038,-1.5299556222982293,-0.2528982086139784,0.026703537555513242,-1.5205308443374599,-0.25132741228718347,0.031415926535897934,-1.5001104920891264,-0.25918139392115797,0.028274333882308135,-1.5362388076054088,-0.23404865269243957,0.017278759594743863,-1.4875441214747671,-0.24190263432641412,0.021991148575128554,-1.5550883635269477,-0.2214822820780804,0.021991148575128554,-1.490685714128357,-0.25603980126756815,0.029845130209103038,-1.5393804002589988,-0.22933626371205487,0.028274333882308135,-1.4671237692264334,-0.2748893571891069,1
0.015707963267948967,-1.4686945655532284,-0.243473430653209,0.02042035224833366,-1.518960048010665,-0.23404865269243957,0.025132741228718346,-1.5158184553570753,-0.2387610416728243,0.029845130209103038,-1.5205308443374599,-0.2701769682087222,0.021991148575128554,-1.5236724369910497,-0.2387610416728243,0.023561944901923447,-1.5095352700498956,-0.25132741228718347,0.014137166941154067,-1.5016812884159212,-0.24190263432641412,0.04241150082346221,-1.5205308443374599,-0.25761059759436306,0.012566370614359173,-1.5079644737231006,-0.23719024534602942,0.031415926535897934,-1.504822881069511,-0.25918139392115797,0.012566370614359173,-1.5252432333178447,-0.2356194490192345,1
0.025132741228718346,-1.5001104920891264,-0.24190263432641412,0.023561944901923447,-1.4828317324943823,-0.2497566159603886,0.021991148575128554,-1.5142476590302805,-0.2356194490192345,0.021991148575128554,-1.5079644737231006,-0.2466150233067988,0.017278759594743863,-1.504822881069511,-0.2528982086139784,0.017278759594743863,-1.5283848259714345,-0.243473430653209,0.039269908169872414,-1.5739379194484864,-0.22933626371205487,0.010995574287564277,-1.4859733251479723,-0.23719024534602942,0.025132741228718346,-1.5142476590302805,-0.2497566159603886,0.012566370614359173,-1.5032520847427162,-0.25761059759436306,0.01884955592153876,-1.5456635855661782,-0.22619467105846508,1
0.012566370614359173,-1.4828317324943823,-0.243473430653209,0.026703537555513242,-1.4875441214747671,-0.2544690049407733,0.021991148575128554,-1.5393804002589988,-0.23404865269243957,0.014137166941154067,-1.5001104920891264,-0.22776546738526,0.017278759594743863,-1.490685714128357,-0.2466150233067988,0.025132741228718346,-1.5378096039322038,-0.2466150233067988,0.028274333882308135,-1.518960048010665,-0.2356194490192345,0.017278759594743863,-1.5236724369910497,-0.22933626371205487,0.017278759594743863,-1.534668011278614,-0.21834068942449059,0.014137166941154067,-1.4529866022852793,-0.2497566159603886,0.021991148575128554,-1.471836158206818,-0.25132741228718347,1
0.00942477796076938,-1.4812609361675875,-0.2403318379996192,0.04084070449666732,-1.5283848259714345,-0.2466150233067988,0.021991148575128554,-1.5111060663766904,-0.22933626371205487,0.026703537555513242,-1.5001104920891264,-0.23719024534602942,0.007853981633974483,-1.5142476590302805,-0.2214822820780804,0.025132741228718346,-1.4781193435139977,-0.26232298657474773,0.01884955592153876,-1.5299556222982293,-0.19006635554218249,0.02042035224833366,-1.548805178219768,-0.23404865269243957,0.017278759594743863,-1.567654734141307,-0.21834068942449059,0.021991148575128554,-1.4985396957623311,-0.23404865269243957,0.028274333882308135,-1.5582299561805373,-0.2214822820780804,1
0.026703537555513242,-1.534668011278614,-0.23404865269243957,0.015707963267948967,-1.5001104920891264,-0.2214822820780804,0.01884955592153876,-1.518960048010665,-0.20734511513692636,0.017278759594743863,-1.5142476590302805,-0.22933626371205487,0.029845130209103038,-1.5079644737231006,-0.25761059759436306,0.028274333882308135,-1.518960048010665,-0.22776546738526,0.015707963267948967,-1.5252432333178447,-0.22619467105846508,0.014137166941154067,-1.484402528821177,-0.2497566159603886,0.028274333882308135,-1.5315264186250244,-0.243473430653209,-0.014137166941154067,-1.4325662500369456,-0.2796017461694916,0.02042035224833366,-1.504822881069511,-0.26232298657474773,1
0.014137166941154067,-1.5126768627034854,-0.25603980126756815,0.014137166941154067,-1.5503759745465628,-0.2246238747316702,0.012566370614359173,-1.4938273067819468,-0.28117254249628654,0.034557519189487726,-1.5268140296446395,-0.2481858196335937,0.028274333882308135,-1.5142476590302805,-0.2858849314766712,0.05183627878423159,-1.5111060663766904,-0.334579617607313,0.023561944901923447,-1.4561281949388691,-0.30002209841782523,0.025132741228718346,-1.4671237692264334,-0.32201324699295375,0.017278759594743863,-1.4953981031087415,-0.2827433388230814,0.015707963267948967,-1.547234381892973,-0.2764601535159018,0.014137166941154067,-1.5362388076054088,-0.2528982086139784,1
0.031415926535897934,-1.4985396957623311,-0.26546457922833755,-0.0015707963267948967,-1.4859733251479723,-0.2528982086139784,0.014137166941154067,-1.5315264186250244,-0.2748893571891069,0.04869468613064179,-1.5378096039322038,-0.2874557278034661,0.00471238898038469,-1.5315264186250244,-0.24190263432641412,0.04084070449666732,-1.5252432333178447,-0.2686061718819273,0.05811946409141117,-1.5205308443374599,-0.27331856086231204,0.034557519189487726,-1.595929068023615,-0.2324778563656447,0.08482300164692443,-1.5393804002589988,-0.3078760800517997,0.05811946409141117,-1.4859733251479723,-0.2874557278034661,0.06754424205218056,-1.4969688994355363,-0.2843141351498763,1
0.04084070449666732,-1.4985396957623311,-0.2607521902479528,0.05026548245743669,-1.4985396957623311,-0.27174776453551713,0.091106186954104,-1.5566591598537427,-0.28902652413026103,0.054977871437821374,-1.4953981031087415,-0.2780309498426967,0.06283185307179587,-1.484402528821177,-0.28117254249628654,0.023561944901923447,-1.534668011278614,-0.25761059759436306,0.09738937226128358,-1.5079644737231006,-0.2905973204570559,0.045553093477052,-1.5456635855661782,-0.23719024534602942,0.023561944901923447,-1.5456635855661782,-0.2199114857512855,0.12880529879718153,-1.5456635855661782,-0.2827433388230814,0.03298672286269283,-1.474977750860408,-0.26232298657474773,1
0.07382742735936014,-1.474977750860408,-0.26389378290154264,0.06754424205218056,-1.5425219929125886,-0.33143802495372315,0.08325220532012953,-1.4796901398407927,-0.29530970943744056,0.07696902001294993,-1.5205308443374599,-0.3235840433197487,0.07539822368615504,-1.4498450096316895,-0.3204424506661589,0.1303760951239764,-1.4325662500369456,-0.5073672135547516,0.14922565104551516,-1.457698991265664,-0.4963716392671874,0.17121679962064373,-1.3618804153311752,-0.5984734005088556,0.19006635554218249,-1.4404202316709203,-0.5890486225480862,0.18064157758141308,-1.385442360233099,-0.637743308678728,0.20734511513692636,-1.4388494353441252,-0.6016149931624454,1
0.17435839227423355,-1.3885839528866886,-0.5859070298944964,0.16336281798666927,-1.4042919161546374,-0.5937610115284709,0.15865042900628457,-1.448274213304895,-0.5749114556069322,0.14765485471872028,-1.427853861056561,-0.5843362335677016,0.1350884841043611,-1.4498450096316895,-0.5670574739729577,0.12252211349000196,-1.4090043051350225,-0.548207918051419,0.14451326206513052,-1.4404202316709203,-0.5576326960121882,0.1350884841043611,-1.4341370463637408,-0.5529203070318036,0.12252211349000196,-1.4184290830957915,-0.5403539364174444,0.16650441064025906,-1.4734069545336133,-0.5623450849925731,0.10210176124166828,-1.44356182432451,-0.5497787143782138,1
0.14451326206513052,-1.4042919161546374,-0.5686282702997526,0.11623892818282235,-1.4514158059584845,-0.548207918051419,0.1398008730847458,-1.4467034169781,-0.5450663253978292,0.10681415022205297,-1.3948671381938684,-0.6157521601035995,0.08482300164692443,-1.457698991265664,-0.592190215201676,0.059690260418206076,-1.4467034169781,-0.6063273821428301,0.06283185307179587,-1.4985396957623311,-0.4963716392671874,-0.014137166941154067,-1.4938273067819468,-0.38327430373795474,-0.007853981633974483,-1.5001104920891264,-0.2905973204570559,-0.047123889803846894,-1.547234381892973,-0.1774999849278233,-0.08482300164692443,-1.5315264186250244,-0.03298672286269283,1
-0.1398008730847458,-1.4592697875924587,0.05026548245743669,-0.1303760951239764,-1.4859733251479723,0.19320794819577228,-0.16964600329384885,-1.4341370463637408,0.34086280291449256,-0.17278759594743864,-1.4451326206513047,0.364424747816416,-0.16022122533307945,-1.5032520847427162,0.3974114706791088,-0.16964600329384885,-1.4734069545336133,0.4225442119078272,-0.14765485471872028,-1.470265361880023,0.364424747816416,-0.21519909677090085,-1.4325662500369456,0.4272566008882119,-0.20263272615654165,-1.412145897788612,0.4115486376202629,-0.21834068942449059,-1.4404202316709203,0.4806636759992384,-0.15079644737231007,-1.484402528821177,0.46181412007769956,1
-0.10524335389525807,-1.415287490442202,0.46181412007769956,-0.12566370614359174,-1.4639821765728436,0.38013271108436497,-0.08011061266653972,-1.4404202316709203,0.2230530784048753,-0.04398229715025711,-1.5550883635269477,0.2796017461694916,-0.091106186954104,-1.4686945655532284,0.3063052837250048,-0.08796459430051422,-1.484402528821177,0.32515483964654357,-0.04084070449666732,-1.4765485471872029,0.22619467105846508,-0.031415926535897934,-1.5409511965857936,0.2497566159603886,-0.09581857593448868,-1.5016812884159212,0.31101767270538955,-0.07382742735936014,-1.4671237692264334,0.2607521902479528,-0.08325220532012953,-1.5079644737231006,0.2921681167838508,1
-0.00942477796076938,-1.4592697875924587,0.08011061266653972,-0.006283185307179587,-1.5378096039322038,0.3785619147575701,0.04084070449666732,-1.5299556222982293,0.2324778563656447,0.05654866776461627,-1.533097214951819,0.1869247628885927,0.04398229715025711,-1.518960048010665,0.15393804002589986,0.045553093477052,-1.561371548834127,0.10210176124166828,-0.006283185307179587,-1.547234381892973,0.06597344572538566,-0.015707963267948967,-1.5409511965857936,-0.04084070449666732,-0.006283185307179587,-1.5236724369910497,-0.2214822820780804,0.0031415926535897933,-1.5205308443374599,-0.21519909677090085,0.007853981633974483,-1.5111060663766904,-0.29688050576423547,1
0.015707963267948967,-1.484402528821177,-0.3361504139341079,0.0,-1.4781193435139977,-0.4131194339470578,0.025132741228718346,-1.4451326206513047,-0.5277875658030853,-0.01884955592153876,-1.3917255455402784,-0.5733406592801372,0.02042035224833366,-1.4011503235010478,-0.6770132168486004,0.014137166941154067,-1.2377875055143785,-0.7194247176720626,0.06440264939859076,-1.2692034320502765,-0.805818515645782,0.10367255756846318,-1.2723450247038663,-0.8576547944300136,0.0895353906273091,-1.2770574136842512,-0.8733627576979623,0.09581857593448868,-1.259778654089507,-0.9032078879070656,0.10210176124166828,-1.2377875055143785,-0.8859291283123216,2
0.10367255756846318,-1.275486617357456,-0.8765043503515524,0.11152653920243764,-1.1859512267301469,-0.928340629135784,0.03298672286269283,-1.6194910129255387,-0.9377654070965532,0.12566370614359174,-1.0932742434492482,-1.0273007977238624,0.05811946409141117,-0.8356636458548851,-1.0367255756846319,-0.06911503837897545,-1.2173671532660448,-0.8953539062730911,-0.08482300164692443,-1.429424657383356,-0.821526478913731,-0.10524335389525807,-1.184380430403352,-0.7068583470577035,0.031415926535897934,-1.4105751014618173,-0.7539822368615503,-0.05183627878423159,-1.2173671532660448,-0.8340928495280902,-0.05183627878423159,-1.2393583018411733,-0.7791149780902686,2
-0.017278759594743863,-1.2440706908215582,-0.8042477193189871,0.11152653920243764,-1.3241813034880978,-0.8152432936065513,0.19949113350295186,-1.4624113802460488,-0.8073893119725768,0.07382742735936014,-1.2393583018411733,-0.7257079029792423,0.08639379797371932,-1.415287490442202,-0.7351326809400115,0.07696902001294993,-1.3320352851220725,-0.7524114405347555,0.07539822368615504,-1.3257520998148926,-0.7649778111491147,0.08482300164692443,-1.3351768777756623,-0.7414158662471911,0.08639379797371932,-1.3461724520632266,-0.6565928646002668,0.12095131716320706,-1.460840583919254,-0.7319910882864218,0.0895353906273091,-1.3917255455402784,-0.639314105005523,2
0.06283185307179587,-1.4042919161546374,-0.45081854579013536,0.04084070449666732,-1.5849334937360509,-0.4319689898685966,0.07853981633974483,-1.490685714128357,-0.4696681017116741,0.03769911184307752,-1.5016812884159212,-0.34086280291449256,0.028274333882308135,-1.4812609361675875,-0.3848451000647497,0.015707963267948967,-1.5299556222982293,-0.26232298657474773,0.08796459430051422,-1.7231635704940018,-0.16650441064025906,-0.1460840583919254,-2.161415745669778,0.06597344572538566,-0.35657076618244155,-1.21579635693925,0.2905973204570559,-0.9770353152664256,-0.13194689145077132,-0.6613052535806515,-1.3964379345206632,0.7272786993060372,-0.7838273670706535,2
-1.4357078426905356,0.8780751466783473,0.2748893571891069,-1.3336060814488673,-0.19006635554218249,0.3440043955680823,-1.3587388226775856,-0.5859070298944964,0.27331856086231204,-1.4325662500369456,0.46024332375090476,0.26703537555513246,-1.1403981332530948,0.7508406442079606,-0.30002209841782523,-1.567654734141307,0.5937610115284709,0.7822565707438586,-1.3823007675795091,-0.1350884841043611,0.4963716392671874,-0.9707521299592461,0.9267698328089891,0.5843362335677016,-0.6801548095021903,1.666614902729385,0.07382742735936014,-0.334579617607313,1.278628210011046,1.7954202015265668,-0.08168140899333463,1.415287490442202,0.4084070449666731,2
0.0,1.4671237692264334,0.7461282552275759,0.0,1.1561060965210441,0.4162610266006476,0.19163715186897737,1.398008730847458,0.2843141351498763,-0.15079644737231007,1.3398892667560467,0.00942477796076938,-0.19949113350295186,1.5126768627034854,0.30944687637859464,-0.22619467105846508,1.4561281949388691,0.23719024534602942,-0.36285395148962113,1.6823228659973344,-0.5026548245743669,-0.2686061718819273,1.308473340220149,-0.17278759594743864,-0.16807520696705394,1.4341370463637408,-0.4351105825221864,-0.10838494654884785,1.4231414720761766,-0.5937610115284709,-0.05026548245743669,1.3964379345206632,-0.5152211951887261,2
-0.10995574287564275,1.4074335088082275,-0.4241150082346221,-0.06126105674500098,1.4969688994355363,-0.46024332375090476,-0.10367255756846318,1.385442360233099,-0.45710173109731495,-0.05026548245743669,1.4686945655532284,-0.3597123588360313,-0.02042035224833366,1.4734069545336133,-0.4115486376202629,-0.0031415926535897933,1.4184290830957915,-0.4539601384437252,-0.053407075111026485,1.4372786390173304,-0.5042256209011619,-0.04084070449666732,1.471836158206818,-0.34714598822167214,-0.014137166941154067,1.4938273067819468,-0.3392920065876977,0.03298672286269283,1.4357078426905356,-0.38013271108436497,0.05654866776461627,1.5001104920891264,-0.37699111843077515,2
0.06911503837897545,1.4341370463637408,-0.35657076618244155,0.03612831551628263,1.504822881069511,-0.40212385965949354,0.04398229715025711,1.471836158206818,-0.364424747816416,0.04869468613064179,1.4309954537101508,-0.38798669271833947,0.05183627878423159,1.429424657383356,-0.3895574890451343,0.07539822368615504,1.4639821765728436,-0.3298672286269283,0.059690260418206076,1.4388494353441252,-0.36285395148962113,0.05654866776461627,1.4451326206513047,-0.3487167845484671,0.08482300164692443,1.4451326206513047,-0.3848451000647497,0.07853981633974483,1.4639821765728436,-0.3597123588360313,0.05811946409141117,1.4404202316709203,-0.34714598822167214,2
0.08639379797371932,1.4404202316709203,-0.3754203221039803,0.07696902001294993,1.457698991265664,-0.3597123588360313,0.034557519189487726,1.4404202316709203,-0.3581415625092364,0.06126105674500098,1.4058627124814325,-0.3078760800517997,0.05183627878423159,1.4247122684029712,-0.46024332375090476,0.04084070449666732,1.4592697875924587,-0.39584067435231396,-0.021991148575128554,1.3995795271742528,-0.13665928043115602,0.10053096491487339,1.379159174925919,-0.7932521450314227,-0.026703537555513242,1.352455637370406,-0.6801548095021903,0.025132741228718346,1.302190154912969,-0.6628760499074463,0.11623892818282235,1.3995795271742528,-0.6613052535806515,2
0.047123889803846894,1.3163273218541234,-0.6628760499074463,0.034557519189487726,1.3571680263507908,-0.6047565858160352,0.026703537555513242,1.3398892667560467,-0.6267477343911637,0.04398229715025711,1.3603096190043806,-0.6157521601035995,0.05811946409141117,1.350884841043611,-0.6801548095021903,0.034557519189487726,1.3398892667560467,-0.6455972903127025,0.03769911184307752,1.3917255455402784,-0.6141813637768045,0.053407075111026485,1.4262830647297662,-0.5811946409141118,0.06440264939859076,1.4058627124814325,-0.607898178469625,0.05654866776461627,1.3932963418670732,-0.5906194188748811,0.028274333882308135,1.3351768777756623,-0.6141813637768045,2
0.05811946409141117,1.36659280431156,-0.6110397711232147,0.05183627878423159,1.3493140447168162,-0.6157521601035995,0.059690260418206076,1.379159174925919,-0.5937610115284709,0.06440264939859076,1.3823007675795091,-0.6047565858160352,0.031415926535897934,1.3728759896187397,-0.53249995478347,0.05183627878423159,1.4309954537101508,-0.5026548245743669,0.053407075111026485,1.4168582867689967,-0.5136503988619312,0.059690260418206076,1.457698991265664,-0.5105088062083414,-0.08325220532012953,1.3304644887952775,-0.32672563597333854,-0.11152653920243764,1.5032520847427162,-0.01884955592153876,-0.12409290981679685,1.4639821765728436,-0.03298672286269283,2
-0.11152653920243764,1.5095352700498956,0.053407075111026485,-0.08011061266653972,1.5001104920891264,-0.05183627878423159,-0.091106186954104,1.4953981031087415,0.10681415022205297,-0.10524335389525807,1.5001104920891264,0.11938052083641215,-0.10681415022205297,1.4341370463637408,0.19320794819577228,-0.08325220532012953,1.4671237692264334,0.16179202165987436,-0.08325220532012953,1.474977750860408,0.1382300767579509,-0.06754424205218056,1.533097214951819,0.16179202165987436,-0.05654866776461627,1.5079644737231006,0.10681415022205297,-0.04869468613064179,1.4922565104551517,0.2199114857512855,-0.06126105674500098,1.4812609361675875,0.1398008730847458,2
-0.06283185307179587,1.4561281949388691,0.19006635554218249,-0.05026548245743669,1.4985396957623311,0.16022122533307945,-0.028274333882308135,1.4812609361675875,0.1413716694115407,-0.01884955592153876,1.4985396957623311,0.13665928043115602,-0.03612831551628263,1.4781193435139977,0.11938052083641215,-0.034557519189487726,1.5111060663766904,0.12880529879718153,-0.039269908169872414,1.4561281949388691,0.17592918860102844,-0.034557519189487726,1.4655529728996386,0.17278759594743864,-0.045553093477052,1.4357078426905356,0.1869247628885927,-0.03612831551628263,1.471836158206818,0.16336281798666927,-0.034557519189487726,1.4985396957623311,0.17435839227423355,2
-0.03769911184307752,1.457698991265664,0.14765485471872028,-0.039269908169872414,1.4765485471872029,0.14451326206513052,-0.04084070449666732,1.5095352700498956,0.16022122533307945,-0.01884955592153876,1.4734069545336133,0.1774999849278233,-0.03298672286269283,1.471836158206818,0.18378317023500287,-0.021991148575128554,1.4592697875924587,0.1790707812546182,-0.026703537555513242,1.4734069545336133,0.19163715186897737,-0.029845130209103038,1.4828317324943823,0.16179202165987436,0.00942477796076938,1.5079644737231006,0.18535396656179778,-0.017278759594743863,1.4592697875924587,0.16493361431346415,-0.06597344572538566,1.4655529728996386,0.15865042900628457,2
-0.034557519189487726,1.474977750860408,0.16964600329384885,-0.00471238898038469,1.484402528821177,0.19320794819577228,-0.00942477796076938,1.470265361880023,0.17592918860102844,-0.014137166941154067,1.4639821765728436,0.19006635554218249,-0.01884955592153876,1.4624113802460488,0.1790707812546182,-0.015707963267948967,1.4734069545336133,0.16336281798666927,-0.034557519189487726,1.460840583919254,0.17278759594743864,-0.010995574287564277,1.4875441214747671,0.18064157758141308,0.0,1.5173892516838703,0.19320794819577228,0.0015707963267948967,1.4938273067819468,0.20420352248333656,-0.014137166941154067,1.4812609361675875,0.21362830044410594,2
-0.031415926535897934,1.4891149178015621,0.19792033717615698,-0.04241150082346221,1.4624113802460488,0.18378317023500287,0.00471238898038469,1.4686945655532284,0.23719024534602942,0.0015707963267948967,1.5205308443374599,0.21048670779051615,-0.010995574287564277,1.5032520847427162,0.20263272615654165,-0.017278759594743863,1.4765485471872029,0.17435839227423355,-0.014137166941154067,1.5063936773963058,0.19949113350295186,-0.006283185307179587,1.5173892516838703,0.19006635554218249,-0.015707963267948967,1.5173892516838703,0.16336281798666927,0.0015707963267948967,1.5268140296446395,0.19006635554218249,-0.0015707963267948967,1.5252432333178447,0.19477874452256716,2
-0.015707963267948967,1.5111060663766904,0.1790707812546182,0.029845130209103038,1.5315264186250244,0.17121679962064373,0.010995574287564277,1.4859733251479723,0.19477874452256716,-0.00471238898038469,1.4922565104551517,0.16022122533307945,-0.012566370614359173,1.5205308443374599,0.1869247628885927,-0.0031415926535897933,1.504822881069511,0.19949113350295186,-0.0031415926535897933,1.5268140296446395,0.19163715186897737,0.006283185307179587,1.5111060663766904,0.21362830044410594,-0.0015707963267948967,1.5142476590302805,0.16964600329384885,-0.0031415926535897933,1.5001104920891264,0.16807520696705394,0.015707963267948967,1.5205308443374599,0.16336281798666927,2
-0.0031415926535897933,1.4891149178015621,0.1774999849278233,0.023561944901923447,1.4938273067819468,0.15079644737231007,0.04084070449666732,1.5252432333178447,0.18535396656179778,0.06126105674500098,1.534668011278614,0.19320794819577228,0.05183627878423159,1.5063936773963058,0.17121679962064373,0.007853981633974483,1.4875441214747671,0.18535396656179778,0.015707963267948967,1.490685714128357,0.182212373908208,0.03612831551628263,1.5252432333178447,0.18378317023500287,0.01884955592153876,1.5158184553570753,0.18535396656179778,0.014137166941154067,1.5032520847427162,0.16493361431346415,0.05026548245743669,1.5032520847427162,0.1790707812546182,2
0.047123889803846894,1.5252432333178447,0.19949113350295186,0.031415926535897934,1.484402528821177,0.20577431881013145,0.029845130209103038,1.4812609361675875,0.17435839227423355,0.03612831551628263,1.5126768627034854,0.17435839227423355,0.025132741228718346,1.5221016406642547,0.16493361431346415,0.045553093477052,1.4938273067819468,0.16022122533307945,0.028274333882308135,1.5362388076054088,0.13194689145077132,0.03298672286269283,1.5032520847427162,0.15393804002589986,0.04084070449666732,1.533097214951819,0.1413716694115407,0.034557519189487726,1.5173892516838703,0.15707963267948966,0.029845130209103038,1.4938273067819468,0.19006635554218249,2
0.03612831551628263,1.4953981031087415,0.18535396656179778,0.021991148575128554,1.4828317324943823,0.17278759594743864,0.023561944901923447,1.4875441214747671,0.16807520696705394,0.04398229715025711,1.484402528821177,0.17592918860102844,0.023561944901923447,1.5001104920891264,0.18064157758141308,0.034557519189487726,1.4985396957623311,0.19006635554218249,0.03769911184307752,1.5095352700498956,0.19006635554218249,0.045553093477052,1.4969688994355363,0.16650441064025906,0.04084070449666732,1.5142476590302805,0.14922565104551516,0.04241150082346221,1.5205308443374599,0.13351768777756623,0.045553093477052,1.518960048010665,0.1398008730847458,2
0.02042035224833366,1.474977750860408,0.1429424657383356,0.031415926535897934,1.471836158206818,0.15707963267948966,0.06754424205218056,1.5126768627034854,0.20734511513692636,0.06911503837897545,1.5158184553570753,0.19163715186897737,0.03612831551628263,1.4891149178015621,0.1398008730847458,0.029845130209103038,1.4922565104551517,0.17592918860102844,0.045553093477052,1.5566591598537427,0.15236724369910498,0.04084070449666732,1.5409511965857936,0.19163715186897737,0.05654866776461627,1.5095352700498956,0.2199114857512855,0.05654866776461627,1.5001104920891264,0.19320794819577228,0.053407075111026485,1.5236724369910497,0.19477874452256716,2
0.059690260418206076,1.5268140296446395,0.20577431881013145,0.034557519189487726,1.5095352700498956,0.2167698930976957,0.031415926535897934,1.4875441214747671,0.16336281798666927,0.05026548245743669,1.5173892516838703,0.21362830044410594,0.06911503837897545,1.533097214951819,0.1774999849278233,0.05654866776461627,1.5378096039322038,0.243473430653209,0.06126105674500098,1.5283848259714345,0.18064157758141308,0.025132741228718346,1.4247122684029712,0.22619467105846508,0.04241150082346221,1.4404202316709203,0.21048670779051615,0.05026548245743669,1.4859733251479723,0.21519909677090085,0.05183627878423159,1.5221016406642547,0.21519909677090085,2
0.06597344572538566,1.5205308443374599,0.19792033717615698,0.07068583470577035,1.504822881069511,0.21834068942449059,0.054977871437821374,1.5079644737231006,0.2356194490192345,0.06283185307179587,1.5236724369910497,0.17592918860102844,0.06440264939859076,1.5299556222982293,0.1869247628885927,0.054977871437821374,1.518960048010665,0.15550883635269477,0.05026548245743669,1.5126768627034854,0.18064157758141308,0.053407075111026485,1.504822881069511,0.17121679962064373,0.06754424205218056,1.5079644737231006,0.18378317023500287,0.054977871437821374,1.5063936773963058,0.182212373908208,0.04869468613064179,1.5016812884159212,0.20106192982974677,2
0.047123889803846894,1.490685714128357,0.19320794819577228,0.053407075111026485,1.4875441214747671,0.21519909677090085,0.053407075111026485,1.5111060663766904,0.2230530784048753,0.08011061266653972,1.5221016406642547,0.2199114857512855,0.07853981633974483,1.4938273067819468,0.19634954084936207,0.05026548245743669,1.5016812884159212,0.2246238747316702,0.06126105674500098,1.518960048010665,0.16807520696705394,0.05811946409141117,1.4969688994355363,0.22776546738526,0.08482300164692443,1.5221016406642547,0.19949113350295186,0.07696902001294993,1.5016812884159212,0.16964600329384885,0.045553093477052,1.5032520847427162,0.18849555921538758,2
0.054977871437821374,1.5016812884159212,0.1869247628885927,0.09738937226128358,1.5079644737231006,0.19949113350295186,0.034557519189487726,1.4639821765728436,0.2246238747316702,0.054977871437821374,1.5063936773963058,0.23719024534602942,0.10995574287564275,1.5079644737231006,0.18064157758141308,0.0895353906273091,1.4922565104551517,0.2481858196335937,0.059690260418206076,1.4875441214747671,0.18535396656179778,0.07225663103256526,1.504822881069511,0.2214822820780804,0.05654866776461627,1.4922565104551517,0.19792033717615698,0.04869468613064179,1.5016812884159212,0.20106192982974677,0.08639379797371932,1.490685714128357,0.19320794819577228,2
0.07382742735936014,1.5032520847427162,0.20734511513692636,0.06440264939859076,1.4953981031087415,0.19163715186897737,0.06440264939859076,1.5063936773963058,0.19949113350295186,0.059690260418206076,1.4922565104551517,0.19006635554218249,0.059690260418206076,1.5016812884159212,0.2199114857512855,0.04869468613064179,1.4859733251479723,0.19477874452256716,0.07068583470577035,1.4891149178015621,0.2324778563656447,0.06911503837897545,1.5032520847427162,0.16807520696705394,0.06911503837897545,1.5032520847427162,0.2356194490192345,0.07539822368615504,1.504822881069511,0.19163715186897737,0.06911503837897545,1.4938273067819468,0.19477874452256716,2
0.05183627878423159,1.4985396957623311,0.21048670779051615,0.05183627878423159,1.4639821765728436,0.19634954084936207,0.07382742735936014,1.4875441214747671,0.23719024534602942,0.08639379797371932,1.5362388076054088,0.20734511513692636,0.08482300164692443,1.5173892516838703,0.1869247628885927,0.07225663103256526,1.5440927892393834,0.15707963267948966,0.0895353906273091,1.5550883635269477,0.1774999849278233,0.05811946409141117,1.4891149178015621,0.16964600329384885,0.07853981633974483,1.474977750860408,0.20577431881013145,0.06597344572538566,1.490685714128357,0.2199114857512855,0.07225663103256526,1.4859733251479723,0.17121679962064373,2
0.06440264939859076,1.490685714128357,0.21834068942449059,0.07068583470577035,1.490685714128357,0.21834068942449059,0.07853981633974483,1.5063936773963058,0.18535396656179778,0.07853981633974483,1.5221016406642547,0.2246238747316702,0.08325220532012953,1.5126768627034854,0.182212373908208,0.05654866776461627,1.4985396957623311,0.20734511513692636,0.029845130209103038,1.4796901398407927,0.1869247628885927,0.13351768777756623,1.5425219929125886,0.20734511513692636,0.11309733552923254,1.5535175672001529,0.18535396656179778,0.04084070449666732,1.4828317324943823,0.19949113350295186,0.06597344572538566,1.5063936773963058,0.15865042900628457,2
0.06911503837897545,1.490685714128357,0.19792033717615698,0.06754424205218056,1.504822881069511,0.19949113350295186,0.07539822368615504,1.5126768627034854,0.20106192982974677,0.06754424205218056,1.533097214951819,0.27331856086231204,0.10367255756846318,1.4734069545336133,0.12095131716320706,0.12723450247038665,1.4938273067819468,0.1413716694115407,0.11309733552923254,1.5126768627034854,0.16964600329384885,0.10367255756846318,1.5142476590302805,0.15550883635269477,0.09896016858807849,1.4938273067819468,0.14922565104551516,0.091106186954104,1.4985396957623311,0.16807520696705394,0.10681415022205297,1.5158184553570753,0.14765485471872028,2
0.11466813185602744,1.5409511965857936,0.16179202165987436,0.12566370614359174,1.5299556222982293,0.1790707812546182,0.08639379797371932,1.4953981031087415,0.06440264939859076,0.12409290981679685,1.5111060663766904,0.14765485471872028,0.12252211349000196,1.5158184553570753,0.15865042900628457,0.09738937226128358,1.504822881069511,0.1382300767579509,0.09896016858807849,1.5111060663766904,0.1429424657383356,0.10524335389525807,1.5111060663766904,0.14765485471872028,0.10210176124166828,1.4859733251479723,0.12409290981679685,0.12723450247038665,1.5063936773963058,0.1382300767579509,0.11938052083641215,1.5032520847427162,0.16179202165987436,2
0.10681415022205297,1.490685714128357,0.1413716694115407,0.10524335389525807,1.5111060663766904,0.1869247628885927,0.13194689145077132,1.5315264186250244,0.17121679962064373,0.1303760951239764,1.5142476590302805,0.17435839227423355,0.13665928043115602,1.5519467708733579,0.13665928043115602,0.10681415022205297,1.518960048010665,0.12723450247038665,0.10524335389525807,1.5283848259714345,0.10367255756846318,0.13351768777756623,1.5440927892393834,0.13351768777756623,0.11623892818282235,1.4891149178015621,0.13194689145077132,0.12409290981679685,1.5095352700498956,0.12566370614359174,0.07853981633974483,1.4734069545336133,0.16179202165987436,2
0.10053096491487339,1.4734069545336133,0.11623892818282235,0.13665928043115602,1.5378096039322038,0.1398008730847458,0.13351768777756623,1.5268140296446395,0.1350884841043611,0.14451326206513052,1.5519467708733579,0.1429424657383356,0.14451326206513052,1.547234381892973,0.07382742735936014,0.11623892818282235,1.5095352700498956,0.09581857593448868,0.10838494654884785,1.484402528821177,0.08796459430051422,0.12095131716320706,1.5111060663766904,0.10838494654884785,0.1382300767579509,1.5142476590302805,0.10367255756846318,0.15393804002589986,1.518960048010665,0.08011061266653972,0.1350884841043611,1.5425219929125886,0.07853981633974483,2
0.1303760951239764,1.5283848259714345,0.09896016858807849,0.12409290981679685,1.5221016406642547,0.07696902001294993,0.12880529879718153,1.5362388076054088,0.07539822368615504,0.14451326206513052,1.5063936773963058,0.06126105674500098,0.14765485471872028,1.5173892516838703,0.07696902001294993,0.12566370614359174,1.5095352700498956,0.07382742735936014,0.11780972450961726,1.5001104920891264,0.07696902001294993,0.10838494654884785,1.5095352700498956,0.06283185307179587,0.18064157758141308,1.6744688843633597,0.07382742735936014,0.12095131716320706,1.4985396957623311,-0.017278759594743863,0.10210176124166828,1.4985396957623311,0.09896016858807849,2
0.07225663103256526,1.5016812884159212,0.06440264939859076,0.05026548245743669,1.441991027997715,-0.1790707812546182,0.03612831551628263,1.4671237692264334,-0.4084070449666731,0.06126105674500098,1.4090043051350225,-0.5796238445873169,0.0895353906273091,1.4341370463637408,-0.6047565858160352,0.05026548245743669,1.365022007984765,-0.6440264939859075,0.054977871437821374,1.3917255455402784,-0.6346017160251383,0.021991148575128554,1.3870131565598938,-0.6267477343911637,0.04241150082346221,1.3744467859455345,-0.6330309196983434,0.028274333882308135,1.371305193291945,-0.6644468462342413,0.025132741228718346,1.4514158059584845,-0.5340707511102649,2
0.026703537555513242,1.4011503235010478,-0.5560618996853934,0.05654866776461627,1.4671237692264334,-0.5529203070318036,0.10367255756846318,1.448274213304895,-0.6110397711232147,0.04084070449666732,1.3587388226775856,-0.5953318078552658,0.06283185307179587,1.4247122684029712,-0.5434955290710343,0.10053096491487339,1.398008730847458,-0.637743308678728,0.10210176124166828,1.4247122684029712,-0.6440264939859075,0.05811946409141117,1.4388494353441252,-0.6628760499074463,0.10838494654884785,1.4247122684029712,-0.5984734005088556,0.09581857593448868,1.5079644737231006,-0.6440264939859075,0.06754424205218056,1.4341370463637408,-0.6330309196983434,2
0.11152653920243764,1.4199998794225863,-0.5372123437638546,0.08482300164692443,1.4231414720761766,-0.5372123437638546,0.10053096491487339,1.4074335088082275,-0.5733406592801372,0.09738937226128358,1.4090043051350225,-0.5230751768227005,0.10367255756846318,1.4011503235010478,-0.548207918051419,0.09896016858807849,1.4011503235010478,-0.5827654372409066,0.07382742735936014,1.3618804153311752,-0.5387831400906495,0.10524335389525807,1.338318470429252,-0.576482251933727,0.09738937226128358,1.4514158059584845,-0.6565928646002668,0.091106186954104,1.3948671381938684,-0.607898178469625,0.12095131716320706,1.44356182432451,-0.5230751768227005,2
0.06597344572538566,1.3210397108345082,-0.6958627727701392,0.10367255756846318,1.4514158059584845,-0.4775220833456486,0.13665928043115602,1.385442360233099,-0.6613052535806515,0.09424777960769379,1.474977750860408,-0.5293583621298802,0.09424777960769379,1.413716694115407,-0.6094689747964199,0.10210176124166828,1.427853861056561,-0.592190215201676,0.11780972450961726,1.4231414720761766,-0.6031857894892403,0.05183627878423159,1.4168582867689967,-0.5984734005088556,0.09424777960769379,1.4074335088082275,-0.5874778262212914,0.10524335389525807,1.429424657383356,-0.5592034923389833,0.09738937226128358,1.4042919161546374,-0.5717698629533424,2
0.10524335389525807,1.4042919161546374,-0.6031857894892403,0.09896016858807849,1.4074335088082275,-0.6031857894892403,0.10995574287564275,1.4027211198278426,-0.6141813637768045,0.07853981633974483,1.3775883785991243,-0.6031857894892403,0.09738937226128358,1.4011503235010478,-0.6518804756198822,0.10053096491487339,1.3948671381938684,-0.5890486225480862,0.10053096491487339,1.4215706757493816,-0.5701990666265474,0.10053096491487339,1.4058627124814325,-0.5623450849925731,0.11309733552923254,1.441991027997715,-0.5639158813193679,0.10210176124166828,1.4215706757493816,-0.5969026041820606,0.10053096491487339,1.4074335088082275,-0.5811946409141118,2
0.10210176124166828,1.4168582867689967,-0.5717698629533424,0.11152653920243764,1.3995795271742528,-0.6204645490839842,0.08482300164692443,1.4168582867689967,-0.5592034923389833,0.10838494654884785,1.3917255455402784,-0.5906194188748811,0.08639379797371932,1.3870131565598938,-0.5466371217246241,0.11309733552923254,1.4451326206513047,-0.560774288665778,0.09738937226128358,1.3901547492134834,-0.5890486225480862,0.08796459430051422,1.3618804153311752,-0.5843362335677016,0.10524335389525807,1.398008730847458,-0.6110397711232147,0.10681415022205297,1.4467034169781,-0.6094689747964199,0.10995574287564275,1.412145897788612,-0.607898178469625,2
0.10367255756846318,1.4325662500369456,-0.5592034923389833,0.09896016858807849,1.383871563906304,-0.560774288665778,0.14765485471872028,1.4184290830957915,-0.560774288665778,0.10681415022205297,1.3807299712527141,-0.5701990666265474,0.09896016858807849,1.4105751014618173,-0.5953318078552658,0.12252211349000196,1.4357078426905356,-0.5466371217246241,0.1303760951239764,1.4090043051350225,-0.592190215201676,0.12095131716320706,1.4341370463637408,-0.5811946409141118,0.13351768777756623,1.429424657383356,-0.5544911033585984,0.14451326206513052,1.4058627124814325,-0.5544911033585984,0.10838494654884785,1.4011503235010478,-0.5403539364174444,2
0.10053096491487339,1.4011503235010478,-0.5623450849925731,0.1350884841043611,1.448274213304895,-0.5670574739729577,0.028274333882308135,1.3603096190043806,-0.5497787143782138,0.15865042900628457,1.3995795271742528,-0.6188937527571893,0.2167698930976957,1.484402528821177,-0.5859070298944964,0.1350884841043611,1.4765485471872029,-0.5073672135547516,0.1398008730847458,1.412145897788612,-0.6094689747964199,0.15079644737231007,1.4514158059584845,-0.5230751768227005,0.15707963267948966,1.415287490442202,-0.592190215201676,0.13351768777756623,1.412145897788612,-0.5796238445873169,0.15393804002589986,1.4404202316709203,-0.5670574739729577,2
0.12880529879718153,1.4074335088082275,-0.5262167694762904,0.1382300767579509,1.4231414720761766,-0.5969026041820606,0.15865042900628457,1.4467034169781,-0.5262167694762904,0.11623892818282235,1.379159174925919,-0.5953318078552658,0.15550883635269477,1.441991027997715,-0.548207918051419,0.16807520696705394,1.533097214951819,-0.44139376782936596,0.18064157758141308,1.5645131414877171,-0.3848451000647497,0.08011061266653972,1.4922565104551517,-0.2843141351498763,0.03298672286269283,1.5205308443374599,-0.12095131716320706,0.045553093477052,1.5362388076054088,-0.06754424205218056,0.09267698328089889,1.5456635855661782,-0.1790707812546182,2
0.08482300164692443,1.5079644737231006,-0.16964600329384885,0.07539822368615504,1.5268140296446395,-0.16022122533307945,0.06283185307179587,1.5173892516838703,-0.18378317023500287,0.039269908169872414,1.5032520847427162,-0.2387610416728243,0.045553093477052,1.5063936773963058,-0.20734511513692636,0.05183627878423159,1.4828317324943823,-0.19163715186897737,0.06911503837897545,1.5142476590302805,-0.21362830044410594,0.06754424205218056,1.518960048010665,-0.18849555921538758,0.09424777960769379,1.5315264186250244,-0.15865042900628457,0.07225663103256526,1.5142476590302805,-0.17278759594743864,0.05183627878423159,1.4938273067819468,-0.1869247628885927,2
0.06754424205218056,1.4985396957623311,-0.2167698930976957,0.07382742735936014,1.5205308443374599,-0.2246238747316702,0.07382742735936014,1.5205308443374599,-0.20263272615654165,0.07853981633974483,1.5173892516838703,-0.20106192982974677,0.06597344572538566,1.4938273067819468,-0.22933626371205487,0.06597344572538566,1.5032520847427162,-0.22619467105846508,0.09738937226128358,1.5173892516838703,-0.20577431881013145,0.06440264939859076,1.5016812884159212,-0.16964600329384885,0.06283185307179587,1.4985396957623311,-0.18378317023500287,0.07696902001294993,1.5283848259714345,-0.15079644737231007,0.07382742735936014,1.533097214951819,-0.16022122533307945,2
0.08639379797371932,1.5362388076054088,-0.21048670779051615,0.07696902001294993,1.5095352700498956,-0.19320794819577228,0.07068583470577035,1.4938273067819468,-0.21048670779051615,0.08011061266653972,1.5456635855661782,-0.16650441064025906,0.091106186954104,1.5221016406642547,-0.19320794819577228,0.05654866776461627,1.504822881069511,-0.18378317023500287,0.08168140899333463,1.5221016406642547,-0.2167698930976957,0.09581857593448868,1.5221016406642547,-0.15236724369910498,0.08168140899333463,1.5315264186250244,-0.17121679962064373,0.06597344572538566,1.5173892516838703,-0.19477874452256716,0.08482300164692443,1.4969688994355363,-0.19949113350295186,2
0.10210176124166828,1.5173892516838703,-0.16964600329384885,0.08482300164692443,1.5299556222982293,-0.16336281798666927,0.06754424205218056,1.5252432333178447,-0.18535396656179778,0.08168140899333463,1.5063936773963058,-0.17435839227423355,0.10210176124166828,1.5079644737231006,-0.19949113350295186,0.07853981633974483,1.5393804002589988,-0.1774999849278233,0.09424777960769379,1.5692255304681018,-0.19320794819577228,0.08639379797371932,1.5378096039322038,-0.19792033717615698,0.06283185307179587,1.5079644737231006,-0.19163715186897737,0.08482300164692443,1.5205308443374599,-0.20263272615654165,0.08796459430051422,1.5016812884159212,-0.1382300767579509,2
0.09581857593448868,1.4985396957623311,-0.16650441064025906,0.091106186954104,1.5378096039322038,-0.08168140899333463,0.09424777960769379,1.413716694115407,-0.24504422698000392,0.364424747816416,1.59435827169682,0.05654866776461627,0.33143802495372315,0.6455972903127025,-0.05811946409141117,-0.2466150233067988,0.7367034772668066,1.0068804454755287,0.10053096491487339,0.3298672286269283,2.1519909677090086,-0.08796459430051422,0.19634954084936207,1.7828538309122075,0.06597344572538566,0.6283185307179586,1.4639821765728436,0.25761059759436306,-0.053407075111026485,1.365022007984765,0.31573006168577417,0.6707300315414209,1.4262830647297662,2
0.24504422698000392,0.07225663103256526,0.8655087760639881,0.07382742735936014,0.2905973204570559,1.3618804153311752,0.5277875658030853,-1.2974777659325847,2.536836067773758,-0.03769911184307752,0.14765485471872028,1.5425219929125886,-0.047123889803846894,0.13665928043115602,1.4922565104551517,-0.07696902001294993,0.12723450247038665,1.4812609361675875,-0.09896016858807849,0.1303760951239764,1.490685714128357,-0.06754424205218056,0.06754424205218056,1.5032520847427162,-0.034557519189487726,0.10681415022205297,1.5063936773963058,-0.10838494654884785,0.10838494654884785,1.484402528821177,-0.11152653920243764,0.06597344572538566,1.4938273067819468,2
-0.09424777960769379,0.10367255756846318,1.4828317324943823,-0.06911503837897545,0.11623892818282235,1.4969688994355363,-0.10995574287564275,0.12409290981679685,1.4765485471872029,-0.07696902001294993,0.09581857593448868,1.4922565104551517,-0.09581857593448868,0.09581857593448868,1.490685714128357,-0.12095131716320706,0.09424777960769379,1.5299556222982293,-0.11623892818282235,0.07539822368615504,1.534668011278614,-0.10524335389525807,0.09424777960769379,1.5315264186250244,-0.10681415022205297,0.10210176124166828,1.534668011278614,-0.12095131716320706,0.07853981633974483,1.5315264186250244,-0.12252211349000196,0.08168140899333463,1.5252432333178447,2
-0.12723450247038665,0.10210176124166828,1.5283848259714345,-0.11309733552923254,0.10210176124166828,1.534668011278614,-0.12252211349000196,0.09738937226128358,1.534668011278614,-0.12566370614359174,0.09738937226128358,1.533097214951819,-0.12566370614359174,0.10053096491487339,1.5299556222982293,-0.12252211349000196,0.09581857593448868,1.5252432333178447,-0.12409290981679685,0.10053096491487339,1.533097214951819,-0.12252211349000196,0.10524335389525807,1.533097214951819,-0.12409290981679685,0.09267698328089889,1.5299556222982293,-0.12095131716320706,0.091106186954104,1.533097214951819,-0.12566370614359174,0.09581857593448868,1.5299556222982293,2
-0.12566370614359174,0.09267698328089889,1.533097214951819,-0.11938052083641215,0.08796459430051422,1.5378096039322038,-0.12409290981679685,0.08796459430051422,1.5268140296446395,-0.12409290981679685,0.08796459430051422,1.5268140296446395,-0.12566370614359174,0.08482300164692443,1.5315264186250244,-0.12252211349000196,0.091106186954104,1.5315264186250244,-0.12409290981679685,0.08796459430051422,1.5252432333178447,-0.12409290981679685,0.0895353906273091,1.5299556222982293,-0.12566370614359174,0.08796459430051422,1.5299556222982293,-0.12723450247038665,0.0895353906273091,1.5268140296446395,-0.12566370614359174,0.0895353906273091,1.5283848259714345,3
-0.12566370614359174,0.08639379797371932,1.5299556222982293,-0.12409290981679685,0.0895353906273091,1.5268140296446395,-0.12566370614359174,0.08796459430051422,1.5283848259714345,-0.12409290981679685,0.08796459430051422,1.5283848259714345,-0.12880529879718153,0.08482300164692443,1.533097214951819,-0.12723450247038665,0.08796459430051422,1.5299556222982293,-0.12566370614359174,0.08796459430051422,1.533097214951819,-0.12566370614359174,0.09267698328089889,1.5378096039322038,-0.13194689145077132,0.08482300164692443,1.5221016406642547,-0.1303760951239764,0.08639379797371932,1.533097214951819,-0.12723450247038665,0.08482300164692443,1.5315264186250244,3
-0.12409290981679685,0.08168140899333463,1.5315264186250244,-0.12566370614359174,0.08011061266653972,1.5283848259714345,-0.12566370614359174,0.08482300164692443,1.5236724369910497,-0.12566370614359174,0.07853981633974483,1.533097214951819,-0.12566370614359174,0.08168140899333463,1.5299556222982293,-0.12723450247038665,0.08011061266653972,1.5283848259714345,-0.12723450247038665,0.08325220532012953,1.5283848259714345,-0.12723450247038665,0.08482300164692443,1.5315264186250244,-0.12880529879718153,0.08482300164692443,1.5283848259714345,-0.12723450247038665,0.08482300164692443,1.5315264186250244,-0.12880529879718153,0.08325220532012953,1.5315264186250244,3
-0.12880529879718153,0.08639379797371932,1.5315264186250244,-0.12723450247038665,0.0895353906273091,1.533097214951819,-0.12880529879718153,0.08482300164692443,1.5268140296446395,-0.12880529879718153,0.08168140899333463,1.5315264186250244,-0.12723450247038665,0.0895353906273091,1.5299556222982293,-0.12566370614359174,0.08482300164692443,1.5252432333178447,-0.12723450247038665,0.07853981633974483,1.5299556222982293,-0.12723450247038665,0.08796459430051422,1.5268140296446395,-0.12880529879718153,0.08639379797371932,1.5268140296446395,-0.12566370614359174,0.08168140899333463,1.533097214951819,-0.12880529879718153,0.08325220532012953,1.534668011278614,3
-0.12723450247038665,0.08168140899333463,1.5315264186250244,-0.12566370614359174,0.07853981633974483,1.533097214951819,-0.12723450247038665,0.08168140899333463,1.5268140296446395,-0.12880529879718153,0.08168140899333463,1.5283848259714345,-0.12723450247038665,0.08325220532012953,1.5315264186250244,-0.12723450247038665,0.08011061266653972,1.534668011278614,-0.12880529879718153,0.07853981633974483,1.5268140296446395,-0.12880529879718153,0.08168140899333463,1.533097214951819,-0.12723450247038665,0.08168140899333463,1.533097214951819,-0.12880529879718153,0.08011061266653972,1.5299556222982293,-0.12880529879718153,0.08168140899333463,1.5283848259714345,3
-0.12723450247038665,0.08011061266653972,1.5283848259714345,-0.12880529879718153,0.08325220532012953,1.5315264186250244,-0.12880529879718153,0.08168140899333463,1.5315264186250244,-0.12723450247038665,0.08325220532012953,1.5299556222982293,-0.12880529879718153,0.08011061266653972,1.5315264186250244,-0.12880529879718153,0.08011061266653972,1.5283848259714345,-0.12880529879718153,0.08011061266653972,1.5299556222982293,-0.1303760951239764,0.08011061266653972,1.5315264186250244,-0.12723450247038665,0.08011061266653972,1.5315264186250244,-0.12880529879718153,0.08168140899333463,1.533097214951819,-0.12880529879718153,0.08011061266653972,1.5378096039322038,3
-0.12880529879718153,0.08168140899333463,1.5299556222982293,-0.12880529879718153,0.08011061266653972,1.5283848259714345,-0.1303760951239764,0.07853981633974483,1.5299556222982293,-0.12723450247038665,0.07853981633974483,1.534668011278614,-0.13194689145077132,0.08011061266653972,1.5299556222982293,-0.1303760951239764,0.07696902001294993,1.533097214951819,-0.12880529879718153,0.08011061266653972,1.5283848259714345,-0.12880529879718153,0.07853981633974483,1.533097214951819,-0.1303760951239764,0.08011061266653972,1.5315264186250244,-0.1303760951239764,0.07853981633974483,1.5236724369910497,-0.1303760951239764,0.08325220532012953,1.534668011278614,3
-0.12723450247038665,0.08011061266653972,1.5283848259714345,-0.1350884841043611,0.0895353906273091,1.5236724369910497,-0.13665928043115602,0.07539822368615504,1.5299556222982293,-0.13194689145077132,0.07539822368615504,1.533097214951819,-0.1303760951239764,0.08482300164692443,1.5299556222982293,-0.12880529879718153,0.08325220532012953,1.5378096039322038,-0.1303760951239764,0.08011061266653972,1.5299556222982293,-0.13194689145077132,0.08011061266653972,1.533097214951819,-0.1303760951239764,0.07853981633974483,1.5315264186250244,-0.12880529879718153,0.08011061266653972,1.5315264186250244,-0.12880529879718153,0.08168140899333463,1.5299556222982293,3
-0.12880529879718153,0.08168140899333463,1.5315264186250244,-0.12880529879718153,0.07853981633974483,1.5315264186250244,-0.12880529879718153,0.07853981633974483,1.5268140296446395,-0.12880529879718153,0.08325220532012953,1.533097214951819,-0.1303760951239764,0.08011061266653972,1.5315264186250244,-0.1303760951239764,0.07853981633974483,1.534668011278614,-0.13194689145077132,0.08011061266653972,1.5283848259714345,-0.12880529879718153,0.08011061266653972,1.5299556222982293,-0.13194689145077132,0.07539822368615504,1.533097214951819,-0.1303760951239764,0.07539822368615504,1.5315264186250244,-0.13351768777756623,0.08011061266653972,1.5283848259714345,3
-0.12880529879718153,0.07853981633974483,1.534668011278614,-0.1303760951239764,0.07696902001294993,1.533097214951819,-0.1303760951239764,0.07382742735936014,1.533097214951819,-0.1303760951239764,0.07539822368615504,1.5315264186250244,-0.12880529879718153,0.07696902001294993,1.5315264186250244,-0.1303760951239764,0.07539822368615504,1.533097214951819,-0.12880529879718153,0.07853981633974483,1.5252432333178447,-0.13194689145077132,0.07696902001294993,1.5315264186250244,-0.12880529879718153,0.07539822368615504,1.5315264186250244,-0.13194689145077132,0.08011061266653972,1.5315264186250244,-0.12880529879718153,0.07539822368615504,1.5315264186250244,3
-0.1303760951239764,0.07853981633974483,1.5283848259714345,-0.12723450247038665,0.07696902001294993,1.5315264186250244,-0.12880529879718153,0.07539822368615504,1.5315264186250244,-0.12880529879718153,0.07539822368615504,1.5315264186250244,-0.13351768777756623,0.08011061266653972,1.5299556222982293,-0.12880529879718153,0.07853981633974483,1.533097214951819,-0.13194689145077132,0.07853981633974483,1.533097214951819,-0.12880529879718153,0.08011061266653972,1.534668011278614,-0.13194689145077132,0.07696902001294993,1.5315264186250244,-0.12880529879718153,0.07696902001294993,1.5283848259714345,-0.12880529879718153,0.07853981633974483,1.5283848259714345,3
-0.12723450247038665,0.07539822368615504,1.5268140296446395,-0.12880529879718153,0.07696902001294993,1.5315264186250244,-0.1303760951239764,0.07853981633974483,1.5283848259714345,-0.13194689145077132,0.08011061266653972,1.533097214951819,-0.12723450247038665,0.07853981633974483,1.533097214951819,-0.1303760951239764,0.08168140899333463,1.5315264186250244,-0.13194689145077132,0.07853981633974483,1.5283848259714345,-0.13194689145077132,0.07068583470577035,1.5221016406642547,-0.12880529879718153,0.07853981633974483,1.5268140296446395,-0.1303760951239764,0.07696902001294993,1.5283848259714345,-0.1303760951239764,0.07539822368615504,1.5299556222982293,3
-0.13194689145077132,0.07382742735936014,1.533097214951819,-0.13351768777756623,0.07853981633974483,1.5268140296446395,-0.13194689145077132,0.08011061266653972,1.5283848259714345,-0.13194689145077132,0.07539822368615504,1.534668011278614,-0.13351768777756623,0.08168140899333463,1.5268140296446395,-0.1303760951239764,0.07539822368615504,1.534668011278614,-0.13351768777756623,0.07853981633974483,1.5315264186250244,-0.1303760951239764,0.07853981633974483,1.5283848259714345,-0.12880529879718153,0.07539822368615504,1.5299556222982293,-0.13194689145077132,0.07853981633974483,1.533097214951819,-0.13194689145077132,0.07539822368615504,1.5268140296446395,3
-0.13194689145077132,0.07539822368615504,1.5283848259714345,-0.13194689145077132,0.07696902001294993,1.5299556222982293,-0.13194689145077132,0.07539822368615504,1.5299556222982293,-0.12880529879718153,0.07539822368615504,1.5362388076054088,-0.13351768777756623,0.07539822368615504,1.5283848259714345,-0.1303760951239764,0.07539822368615504,1.5315264186250244,-0.1303760951239764,0.07539822368615504,1.5315264186250244,-0.13351768777756623,0.07696902001294993,1.5315264186250244,-0.12880529879718153,0.07696902001294993,1.5299556222982293,-0.13194689145077132,0.07696902001294993,1.5299556222982293,-0.1303760951239764,0.07853981633974483,1.533097214951819,3
-0.1303760951239764,0.07539822368615504,1.5315264186250244,-0.13194689145077132,0.07382742735936014,1.5315264186250244,-0.13194689145077132,0.07696902001294993,1.5283848259714345,-0.1303760951239764,0.07539822368615504,1.5299556222982293,-0.13194689145077132,0.07539822368615504,1.5315264186250244,-0.1303760951239764,0.07539822368615504,1.5299556222982293,-0.12880529879718153,0.07539822368615504,1.534668011278614,-0.13194689145077132,0.07696902001294993,1.533097214951819,-0.12880529879718153,0.07539822368615504,1.533097214951819,-0.13351768777756623,0.07696902001294993,1.533097214951819,-0.12880529879718153,0.07539822368615504,1.5315264186250244,3
-0.13194689145077132,0.07696902001294993,1.5283848259714345,-0.13351768777756623,0.08011061266653972,1.5315264186250244,-0.1303760951239764,0.08011061266653972,1.5299556222982293,-0.13194689145077132,0.07853981633974483,1.533097214951819,-0.1303760951239764,0.07539822368615504,1.5283848259714345,-0.1303760951239764,0.07696902001294993,1.5315264186250244,-0.12880529879718153,0.07382742735936014,1.5299556222982293,-0.1303760951239764,0.07696902001294993,1.533097214951819,-0.13351768777756623,0.07539822368615504,1.533097214951819,-0.13194689145077132,0.07539822368615504,1.5378096039322038,-0.12880529879718153,0.07539822368615504,1.5315264186250244,3
-0.1303760951239764,0.07853981633974483,1.5315264186250244,-0.13194689145077132,0.07696902001294993,1.533097214951819,-0.12880529879718153,0.07382742735936014,1.533097214951819,-0.13194689145077132,0.07853981633974483,1.5315264186250244,-0.13194689145077132,0.07382742735936014,1.5268140296446395,-0.13194689145077132,0.07539822368615504,1.5268140296446395,-0.13194689145077132,0.08011061266653972,1.5315264186250244,-0.13194689145077132,0.07853981633974483,1.5283848259714345,-0.1303760951239764,0.07225663103256526,1.5299556222982293,-0.13194689145077132,0.07539822368615504,1.5283848259714345,-0.13194689145077132,0.07539822368615504,1.533097214951819,3
-0.13194689145077132,0.07539822368615504,1.5299556222982293,-0.13194689145077132,0.07696902001294993,1.533097214951819,-0.13194689145077132,0.07539822368615504,1.5299556222982293,-0.12880529879718153,0.07382742735936014,1.5283848259714345,-0.13194689145077132,0.07539822368615504,1.5315264186250244,-0.13194689145077132,0.08011061266653972,1.5315264186250244,-0.12880529879718153,0.07853981633974483,1.533097214951819,-0.13194689145077132,0.07853981633974483,1.533097214951819,-0.12880529879718153,0.07539822368615504,1.534668011278614,-0.12880529879718153,0.07225663103256526,1.5283848259714345,-0.1350884841043611,0.06283185307179587,1.5299556222982293,3
-0.13194689145077132,0.06440264939859076,1.533097214951819,-0.12880529879718153,0.08011061266653972,1.5268140296446395,-0.12880529879718153,0.08168140899333463,1.5268140296446395,-0.13194689145077132,0.06754424205218056,1.5252432333178447,-0.1350884841043611,0.06911503837897545,1.5252432333178447,-0.12880529879718153,0.08168140899333463,1.5283848259714345,-0.1303760951239764,0.08168140899333463,1.534668011278614,-0.12880529879718153,0.07853981633974483,1.533097214951819,-0.13194689145077132,0.07539822368615504,1.5268140296446395,-0.1303760951239764,0.07539822368615504,1.5268140296446395,-0.13194689145077132,0.07696902001294993,1.5299556222982293,3
-0.13351768777756623,0.08325220532012953,1.5315264186250244,-0.13194689145077132,0.08011061266653972,1.5299556222982293,-0.1350884841043611,0.06754424205218056,1.5362388076054088,-0.13351768777756623,0.06440264939859076,1.5299556222982293,-0.12409290981679685,0.07539822368615504,1.533097214951819,-0.12566370614359174,0.06911503837897545,1.5315264186250244,-0.13351768777756623,0.07539822368615504,1.5221016406642547,-0.1303760951239764,0.07068583470577035,1.5299556222982293,-0.12880529879718153,0.06440264939859076,1.534668011278614,-0.1303760951239764,0.07382742735936014,1.533097214951819,-0.13351768777756623,0.07696902001294993,1.5299556222982293,3
-0.13351768777756623,0.07539822368615504,1.5315264186250244,-0.1303760951239764,0.07853981633974483,1.5299556222982293,-0.1303760951239764,0.07696902001294993,1.5283848259714345,-0.1350884841043611,0.07696902001294993,1.5283848259714345,-0.13194689145077132,0.07539822368615504,1.5299556222982293,-0.13194689145077132,0.07853981633974483,1.5299556222982293,-0.1350884841043611,0.07853981633974483,1.5315264186250244,-0.13194689145077132,0.07853981633974483,1.5268140296446395,-0.1303760951239764,0.07853981633974483,1.5315264186250244,-0.1350884841043611,0.07696902001294993,1.5283848259714345,-0.13351768777756623,0.07382742735936014,1.5315264186250244,3
-0.13351768777756623,0.07382742735936014,1.5299556222982293,-0.13351768777756623,0.07696902001294993,1.5315264186250244,-0.13194689145077132,0.07539822368615504,1.5299556222982293,-0.13194689145077132,0.07539822368615504,1.5283848259714345,-0.1303760951239764,0.07068583470577035,1.5252432333178447,-0.13194689145077132,0.07539822368615504,1.5283848259714345,-0.13351768777756623,0.07539822368615504,1.5268140296446395,-0.13194689145077132,0.07539822368615504,1.5299556222982293,-0.13351768777756623,0.07696902001294993,1.5299556222982293,-0.1303760951239764,0.07382742735936014,1.5252432333178447,-0.12880529879718153,0.07225663103256526,1.5283848259714345,3
-0.1303760951239764,0.07382742735936014,1.533097214951819,-0.13351768777756623,0.07539822368615504,1.5315264186250244,-0.13194689145077132,0.07225663103256526,1.5268140296446395,-0.13194689145077132,0.07382742735936014,1.533097214951819,-0.1350884841043611,0.07539822368615504,1.5315264186250244,-0.13194689145077132,0.07539822368615504,1.5283848259714345,-0.13351768777756623,0.07539822368615504,1.5283848259714345,-0.13194689145077132,0.07382742735936014,1.5315264186250244,-0.13351768777756623,0.07382742735936014,1.5315264186250244,-0.13194689145077132,0.07225663103256526,1.5283848259714345,-0.13351768777756623,0.07539822368615504,1.5299556222982293,3
-0.1303760951239764,0.07539822368615504,1.5315264186250244,-0.13194689145077132,0.07225663103256526,1.533097214951819,-0.13194689145077132,0.07539822368615504,1.5315264186250244,-0.13194689145077132,0.07382742735936014,1.5299556222982293,-0.13194689145077132,0.07696902001294993,1.5315264186250244,-0.13194689145077132,0.07382742735936014,1.5283848259714345,-0.13194689145077132,0.07539822368615504,1.5315264186250244,-0.13351768777756623,0.07382742735936014,1.5283848259714345,-0.13351768777756623,0.07539822368615504,1.5299556222982293,-0.13351768777756623,0.07539822368615504,1.533097214951819,-0.1303760951239764,0.07382742735936014,1.5283848259714345,3
-0.13351768777756623,0.07225663103256526,1.5299556222982293,-0.13351768777756623,0.07382742735936014,1.5315264186250244,-0.13351768777756623,0.07539822368615504,1.5299556222982293,-0.13351768777756623,0.07382742735936014,1.5299556222982293,-0.1303760951239764,0.07539822368615504,1.5299556222982293,-0.13194689145077132,0.07382742735936014,1.533097214951819,-0.13194689145077132,0.07539822368615504,1.533097214951819,-0.13351768777756623,0.07539822368615504,1.5283848259714345,-0.13194689145077132,0.07539822368615504,1.534668011278614,-0.1303760951239764,0.07539822368615504,1.5268140296446395,-0.13194689145077132,0.07225663103256526,1.533097214951819,3
-0.13194689145077132,0.07853981633974483,1.5299556222982293,-0.1350884841043611,0.07539822368615504,1.5268140296446395,-0.1303760951239764,0.07382742735936014,1.5283848259714345,-0.13351768777756623,0.07382742735936014,1.533097214951819,-0.13351768777756623,0.07696902001294993,1.5315264186250244,-0.13194689145077132,0.07539822368615504,1.5283848259714345,-0.13194689145077132,0.07539822368615504,1.533097214951819,-0.13351768777756623,0.07068583470577035,1.5315264186250244,-0.13351768777756623,0.07539822368615504,1.5299556222982293,-0.13194689145077132,0.07539822368615504,1.534668011278614,-0.13194689145077132,0.07539822368615504,1.533097214951819,3
-0.13351768777756623,0.07539822368615504,1.533097214951819,-0.13194689145077132,0.07068583470577035,1.5283848259714345,-0.13194689145077132,0.07382742735936014,1.5283848259714345,-0.13194689145077132,0.07539822368615504,1.5299556222982293,-0.13351768777756623,0.07382742735936014,1.533097214951819,-0.1350884841043611,0.07382742735936014,1.533097214951819,-0.13665928043115602,0.07382742735936014,1.534668011278614,-0.13351768777756623,0.07382742735936014,1.5299556222982293,-0.1303760951239764,0.07382742735936014,1.5252432333178447,-0.13351768777756623,0.07382742735936014,1.5283848259714345,-0.13194689145077132,0.07539822368615504,1.5315264186250244,3
-0.13194689145077132,0.07225663103256526,1.533097214951819,-0.13194689145077132,0.07068583470577035,1.5283848259714345,-0.13351768777756623,0.07068583470577035,1.5299556222982293,-0.13194689145077132,0.07382742735936014,1.5299556222982293,-0.13351768777756623,0.07382742735936014,1.5299556222982293,-0.13351768777756623,0.07539822368615504,1.5283848259714345,-0.13194689145077132,0.07382742735936014,1.534668011278614,-0.13351768777756623,0.07225663103256526,1.5315264186250244,-0.1303760951239764,0.07382742735936014,1.5315264186250244,-0.13351768777756623,0.07539822368615504,1.5299556222982293,-0.1303760951239764,0.07225663103256526,1.5299556222982293,3
-0.13665928043115602,0.07382742735936014,1.533097214951819,-0.13351768777756623,0.07539822368615504,1.5268140296446395,-0.1350884841043611,0.07382742735936014,1.5315264186250244,-0.13351768777756623,0.07539822368615504,1.5268140296446395,-0.1303760951239764,0.07225663103256526,1.5283848259714345,-0.13351768777756623,0.07539822368615504,1.5299556222982293,-0.13194689145077132,0.07225663103256526,1.5268140296446395,-0.13351768777756623,0.07225663103256526,1.533097214951819,-0.1350884841043611,0.07225663103256526,1.5315264186250244,-0.1350884841043611,0.07539822368615504,1.5299556222982293,-0.13194689145077132,0.07539822368615504,1.5299556222982293,3
-0.13665928043115602,0.07225663103256526,1.5315264186250244,-0.13351768777756623,0.07539822368615504,1.533097214951819,-0.13194689145077132,0.07382742735936014,1.5299556222982293,-0.13351768777756623,0.07539822368615504,1.534668011278614,-0.13351768777756623,0.07539822368615504,1.5299556222982293,-0.13351768777756623,0.07696902001294993,1.5315264186250244,-0.1350884841043611,0.07696902001294993,1.5299556222982293,-0.13351768777756623,0.07382742735936014,1.5315264186250244,-0.13194689145077132,0.07225663103256526,1.5299556222982293,-0.13351768777756623,0.07539822368615504,1.5315264186250244,-0.13194689145077132,0.07539822368615504,1.5283848259714345,3
